onset	duration	trial_type	response_time	stim_list	itemno	noun	adjective	order	response	correctness	noun_freq	noun_char	noun_syll	noun_phon	adj_freq	adj_char	adj_syll	adj_phon	arousal	concreteness	imageability	meaningfulness	cosine
24.049047741144022	1.483673677961633	DISTANT	1.483673677961633	2_2	88	törmelék	életveszélyes		old	0	730	8	3	1	3907	13	5	3	4.75	5.8	6.2	6.4	0.657350659
34.0655035446689	1.4670178248998127	FOIL	1.4670178248998127	2_2	101	tartozás	nagymértékű		new	1	5559	8	3	4	437	11	4	1	5.25	5.1	4.8	6.65	0.0
42.06586803953542	1.62703465877712	DISTANT	1.62703465877712	2_2	89	tudomány	genetikai		new	1	3986	8	3	5	1398	9	5	2	2.4	4.8	2.6	5.45	0.662602782
46.0660557940937	2.143712668410444	CLOSE	2.143712668410444	2_2	1	akadály	reménytelen		old	0	6030	7	3	2	1273	11	4	4	4.8	3.9	2.9	4.5	0.8418771620000001
54.08239377074642	1.1863288553140592	CLOSE	1.1863288553140592	2_2	2	albérlet	siralmas		old	0	547	8	3	1	402	8	3	5	5.05	5.45	6.05	6.0	0.7793105840000001
60.08169423772779	1.3703677709709154	TARGET	1.3703677709709154	2_2	63	napsütés	felhőtlen		old	1	3340	8	3	2	612	9	3	1	3.0	6.1	6.45	6.6	0.824103177
66.0819678009866	1.0900645563160651	TARGET	1.0900645563160651	2_2	64	novella	tanulságos		old	1	925	7	3	1	805	10	4	6	2.45	5.4	3.05	6.5	0.783685148
74.09832857457513	1.4257443520618835	FOIL	1.4257443520618835	2_2	102	tehetség	példaértékű		new	1	4105	8	3	4	885	11	5	3	3.05	4.05	3.8	6.1	0.0
82.0986981923561	1.449762591662875	DISTANT	1.449762591662875	2_2	90	tűzijáték	verhetetlen		new	1	1585	9	4	1	357	11	4	2	2.4	3.2	4.55	3.15	0.664982438
90.10205881968432	1.0222285518611898	FOIL	1.0222285518611898	2_2	103	testmozgás	komplex		new	1	624	10	3	3	2818	7	2	2	2.15	5.2	5.7	6.05	0.0
100.11451414472684	1.2410847961582476	TARGET	1.2410847961582476	2_2	65	olimpikon	legendás		old	1	644	9	4	2	3949	8	3	5	2.15	5.8	5.5	6.6	0.8306809070000001
108.11489580134366	1.00882446434116	TARGET	1.00882446434116	2_2	66	oroszlán	nyugodt		old	1	1351	8	3	3	2967	7	2	2	2.1	5.9	6.5	6.35	0.851599276
118.13133546770403	1.280407721962547	FOIL	1.280407721962547	2_2	104	testrész	előnytelen		new	1	636	8	2	2	473	10	4	1	4.75	4.15	5.1	5.95	0.0
122.13153116276952	2.0482070720245247	DISTANT	2.0482070720245247	2_2	91	újságcikk	igazságtalan		old	0	503	9	3	0	1736	12	5	2	5.75	5.35	4.5	5.75	0.626544654
130.13488205657632	1.6369728432109696	CLOSE	1.6369728432109696	2_2	3	alkatrész	technikai		old	0	2625	9	3	2	7859	9	4	3	2.15	4.85	4.45	5.45	0.8308419585
136.1481614012955	1.8637298916291911	FOIL	1.8637298916291911	2_2	105	tiltakozás	egyhangú		old	0	5386	10	4	4	892	8	3	2	4.2	5.3	4.75	6.55	0.0
140.1473386623475	2.1675833682747907	CLOSE	2.1675833682747907	2_2	4	alkohol	biztonságos		old	0	3138	7	3	2	8412	11	4	6	3.5	2.55	2.7	3.1	0.75390619
150.1508017478336	1.4683111029007705	FOIL	1.4683111029007705	2_2	106	tinédzser	kíváncsi		new	1	795	9	3	2	5894	8	3	2	2.1	5.25	5.55	6.8	0.0
154.16397889054497	1.6151384990807856	DISTANT	1.6151384990807856	2_2	92	útlezárás	gyorsforgalmi		new	1	1291	9	4	3	882	13	4	3	2.8	5.9	5.45	6.2	0.620973349
164.1644379030622	1.3911993059446104	CLOSE	1.3911993059446104	2_2	5	állatkert	különleges		old	0	2056	9	3	3	12581	10	4	1	2.5	4.8	5.2	5.4	0.8002586359999999
168.1646561389207	1.766895156884857	TARGET	1.766895156884857	2_2	67	osztályzat	közepes		old	1	1028	10	3	3	4363	7	3	8	4.55	6.45	6.4	6.95	0.816440403
180.18016369226095	1.382547739733127	CLOSE	1.382547739733127	2_2	6	áruházlánc	nyereséges		old	0	935	10	4	2	888	10	4	8	1.75	5.95	4.4	6.5	0.9131852979999999
188.18052793098468	1.470270358884591	DISTANT	1.470270358884591	2_2	93	útmutatás	lelkiismereti		new	1	703	9	4	2	476	13	6	6	3.5	3.7	2.5	5.05	0.6710424423
194.1968034081656	1.301862458640244	DISTANT	1.301862458640244	2_2	94	vacsora	ügyészségi		new	1	2517	7	3	1	1538	10	4	4	2.2	4.95	4.9	4.5	0.6062234639999999
202.19718327176088	1.373884646978695	FOIL	1.373884646978695	2_2	107	titkárság	egyszemélyes		new	1	1040	9	3	3	628	12	4	1	1.5	4.65	5.45	5.4	0.0
210.2005513273034	0.9303645742693334	TARGET	0.9303645742693334	2_2	68	ösztöndíj	tanulmányi		old	1	2344	9	3	1	1823	10	4	8	3.6	6.65	4.5	6.8	0.819112897
214.21370439235037	1.6292526215838734	FOIL	1.6292526215838734	2_2	108	üdvözlet	kölcsönös		new	1	726	8	3	1	2208	9	3	4	2.65	5.8	5.3	6.5	0.0
224.21317493986132	1.3332313020946458	FOIL	1.3332313020946458	2_2	109	ügyintézés	zökkenőmentes		old	0	1849	10	4	3	887	13	5	1	1.9	5.55	4.55	6.5	0.0
232.2135348241136	1.245221800127183	TARGET	1.245221800127183	2_2	69	pénztárca	ismeretlen		new	0	1902	9	3	3	17883	10	4	7	3.55	4.9	4.9	6.15	0.799133718
242.212995894246	1.7492669759740238	FOIL	1.7492669759740238	2_2	110	utasítás	elnökségi		new	1	5327	8	4	4	4277	9	4	8	2.7	5.0	2.7	5.85	0.0
248.2132786787406	1.2770086728269234	TARGET	1.2770086728269234	2_2	70	pisztoly	törvénytelen		old	1	1679	8	2	3	1475	12	4	3	4.75	4.9	4.9	5.3	0.8161163929999999
258.2297247487368	1.420581229715026	TARGET	1.420581229715026	2_2	71	professzor	közgazdasági		new	0	6091	10	3	5	1411	12	5	4	1.9	6.5	5.5	6.65	0.774288118
268.23017915063247	1.3883437972981485	TARGET	1.3883437972981485	2_2	72	rémálom	szomorú		old	1	769	7	3	1	3745	7	3	3	5.8	4.8	4.45	5.5	0.833719671
272.24636164704134	1.7719314872592804	CLOSE	1.7719314872592804	2_2	7	ásványvíz	színvonalas		old	0	963	9	3	1	1782	11	4	5	1.5	3.65	3.15	3.4	0.7986723179999999
284.24590673285275	1.6119909847038798	FOIL	1.6119909847038798	2_2	111	útvonal	ajánlatos		new	1	5624	7	3	3	584	9	4	5	1.6	4.8	4.55	5.65	0.0
290.2491859059592	1.2724456990981707	TARGET	1.2724456990981707	2_2	73	repülőjegy	érvényes		old	1	590	10	4	0	10878	8	3	6	2.8	6.75	6.4	6.9	0.8210387229999999
302.26272831198	1.5473591027548537	DISTANT	1.5473591027548537	2_2	95	végállomás	belvárosi		new	1	893	10	4	4	2263	9	4	7	2.1	5.7	5.7	6.1	0.709046066
306.2629150419598	2.0031226682767738	CLOSE	2.0031226682767738	2_2	8	aszfalt	szabályos		old	0	977	7	2	4	978	9	3	5	1.1	5.1	5.6	4.75	0.777173936
316.26236561012774	1.531313131832576	FOIL	1.531313131832576	2_2	112	üzemanyag	kártékony		new	1	3744	9	4	4	6706	9	3	1	3.75	5.1	4.25	5.7	0.0
322.26264378400083	1.5633208018480218	FOIL	1.5633208018480218	2_2	88	pszichiáter	hűséges		new	1	814	11	4	4	1248	7	3	2	2.55	4.9	3.05	5.05	0.0
330.2660090219506	1.7917994033414288	CLOSE	1.7917994033414288	2_2	9	baktérium	létfontosságú		new	1	1448	9	4	1	894	13	5	3	2.3	4.05	2.95	4.8	0.750643611
336.27827787316346	1.7546511517648469	FOIL	1.7546511517648469	2_2	89	publicista	hiteles		new	1	1111	10	4	1	4985	7	3	8	1.7	4.2	3.1	5.35	0.0
344.27864518563	1.570735442044679	FOIL	1.570735442044679	2_2	90	rokonság	tipikus		new	1	777	8	3	3	1673	7	3	3	2.95	4.25	3.65	3.5	0.0
350.2819512539936	1.2952029350199157	TARGET	1.2952029350199157	2_2	74	sütemény	születésnapi		old	1	1032	8	3	3	731	12	5	2	2.65	6.75	6.7	6.6	0.8020977970000001
354.2951017575906	1.6820049932939585	CLOSE	1.6820049932939585	2_2	10	barátnő	tizenéves		new	1	3479	7	3	1	940	9	4	2	3.85	5.45	5.9	6.2	0.8318079709999999
360.2953886404139	1.242051744950004	FOIL	1.242051744950004	2_2	91	rosszullét	klinikai		new	1	742	10	3	1	1131	8	4	2	5.9	5.0	4.25	4.1	0.0
368.29474238563125	1.1697977450457984	CLOSE	1.1697977450457984	2_2	11	barlang	elhagyatott		old	0	1015	7	2	2	307	11	4	2	3.35	6.25	6.6	6.15	0.803201675
374.3120163174826	1.0973833981406642	FOIL	1.0973833981406642	2_2	92	sorrend	javítási		new	1	3666	7	2	5	518	8	4	4	1.75	4.75	3.65	6.15	0.0
380.3113009034496	1.5533995230071014	CLOSE	1.5533995230071014	2_2	12	benzinkút	délutáni		new	1	1490	9	3	1	6707	8	4	5	1.6	2.65	3.5	2.7	0.792105377
390.3147458026069	1.38190097266488	TARGET	1.38190097266488	2_2	75	szabadidő	kellemes		old	1	1588	9	4	1	5875	8	3	8	3.6	4.9	5.65	6.15	0.817380428
396.3280284772191	1.160699461303011	TARGET	1.160699461303011	2_2	26	fejfájás	kellemetlen		old	1	1351	8	3	4	3486	11	4	1	5.85	5.5	5.25	6.7	0.629661381
404.3273847838864	1.5288082861952716	TARGET	1.5288082861952716	2_2	27	folyadék	elegendő		new	0	1438	8	3	3	9296	8	4	1	2.65	4.85	5.45	6.5	0.676598668
408.3285771406081	1.5204676804714836	DISTANT	1.5204676804714836	2_2	96	ventilátor	nagyobbik		old	0	1165	10	4	3	1603	9	3	1	1.75	5.9	6.55	6.3	0.7033834459999999
418.3440175838696	1.056152957724407	TARGET	1.056152957724407	2_2	28	gorilla	érzékeny		old	1	659	7	3	2	3895	8	3	3	3.1	4.0	4.3	4.9	0.626140475
430.3445654788229	1.344138996777474	FOIL	1.344138996777474	2_2	93	sorsolás	helytelen		new	1	1643	8	3	4	1039	9	3	3	4.05	4.6	3.0	5.65	0.0
436.3608391629896	1.511427285578975	DISTANT	1.511427285578975	2_2	97	világítás	ünnepélyes		old	0	1393	9	4	5	3199	10	4	5	2.35	5.9	6.1	5.75	0.624678135
444.3602087892141	1.5274706950513064	FOIL	1.5274706950513064	2_2	94	szállítás	időigényes		new	1	4813	9	3	5	395	10	5	1	3.15	5.6	4.15	5.9	0.0
454.3606649841313	1.3674605209525907	FOIL	1.3674605209525907	2_2	95	szekrény	kaotikus		new	1	1129	8	2	4	699	8	4	1	2.75	4.25	5.85	5.1	0.0
460.3609477686259	1.119487975644006	TARGET	1.119487975644006	2_2	29	hangszer	autentikus		old	1	1828	8	2	3	526	10	5	1	2.0	4.6	3.7	4.7	0.6304627660000001
466.3612131352347	1.3352118181355763	DISTANT	1.3352118181355763	2_2	98	zarándok	püspöki		new	1	1047	8	3	2	1773	7	3	6	1.9	4.4	4.0	4.2	0.736171305
476.36066267882416	1.255506549248821	FOIL	1.255506549248821	2_2	96	szenzor	mágneses		new	1	959	7	2	3	692	8	3	6	1.55	5.1	3.95	5.4	0.0
484.3600328173416	1.5515483603739997	DISTANT	1.5515483603739997	2_2	99	zeneszerző	rendkívüli		old	0	2295	10	4	1	13622	10	4	2	3.3	5.4	4.8	6.05	0.714982808
492.3633965184199	1.6199199648181093	FOIL	1.6199199648181093	2_2	97	szerencse	viszonylagos		new	1	5746	9	3	1	698	12	4	3	3.2	3.45	2.45	3.85	0.0
502.376850554283	1.438914834994648	TARGET	1.438914834994648	2_2	30	háziorvos	elégedetlen		new	0	2011	9	4	4	2000	11	5	3	4.1	5.6	5.2	5.6	0.6547772288
512.380305186969	1.8032567859991104	TARGET	1.8032567859991104	2_2	31	helyezés	végleges		old	1	5834	8	3	4	7802	8	3	3	2.95	4.45	3.65	5.2	0.617949784
518.3935778719097	1.4462477648048662	DISTANT	1.4462477648048662	2_2	100	zöldség	korlátlan		new	1	2637	7	2	3	1924	9	3	2	2.05	3.9	4.75	3.95	0.7183503509999999
528.3930345875633	1.5739610807577264	TARGET	1.5739610807577264	2_2	32	horgász	tradicionális		old	1	707	7	2	2	850	13	6	1	2.1	4.65	5.0	4.65	0.6454380751
534.4093159560871	1.493572416009556	FOIL	1.493572416009556	2_2	98	szivárgás	fokozatos		new	1	520	9	3	1	1177	9	4	7	4.05	5.25	4.35	6.25	0.0
544.4097683088185	1.5175816905248212	TARGET	1.5175816905248212	2_2	33	iránytű	hasznos		old	1	794	7	3	2	9089	7	2	7	1.75	5.45	6.15	6.3	0.6793020959999999
554.4092365510223	1.701565534916881	TARGET	1.701565534916881	2_2	34	kánikula	tavaszi		old	1	1200	8	4	1	5301	7	3	7	4.05	5.35	5.25	5.1	0.632834494
566.4097670280971	1.3573919585178371	TARGET	1.3573919585178371	2_2	35	kapitány	rutinos		old	1	6280	8	3	5	669	7	3	6	1.95	6.0	5.15	6.1	0.616324306
574.4091315314145	1.549645200233499	FOIL	1.549645200233499	2_2	99	szörnyeteg	láthatatlan		new	1	531	10	3	0	1239	11	4	4	4.55	3.3	4.05	5.35	0.0
582.4095116511526	1.5256623086970649	FOIL	1.5256623086970649	2_2	100	táplálék	elégséges		new	1	945	8	3	3	1780	9	4	5	3.3	4.95	4.65	6.2	0.0
592.4129560380243	1.4181199287995696	TARGET	1.4181199287995696	2_2	36	kastély	csodálatos		old	1	2771	7	2	4	3144	10	4	8	2.85	6.0	6.75	6.35	0.7096855040000001
598.4252264261086	1.5569809476510272	TARGET	1.5569809476510272	2_2	37	képregény	izgalmas		old	1	1156	9	3	5	6482	8	3	7	3.45	6.15	5.8	6.7	0.673104167
