onset	duration	trial_type	response_time	stim_list	itemno	noun	adjective	jitter	response	counterbalance	noun_freq	noun_char	noun_syll	noun_phon	adj_freq	adj_char	adj_syll	adj_phon	arousal	concreteness	imageability	meaningfulness	cosine
28.036400493539983	2.0	BASELINE	0.757228011279949	StimuliTable-1776-Mapping-Run6.xlsx	83	tananyag	iskolai	10	4	2	1192	8	3	3	5542	7	4	3	3.9	5.65	4.85	6.9	1.0
40.0490098265509	2.0	BASELINE	1.0961113602897967	StimuliTable-1776-Mapping-Run6.xlsx	18	csomagolás	ízléses	10	1	2	1577	10	4	4	472	7	3	7	1.35	5.8	6.1	6.05	1.0
50.05253133121733	2.0	DISTANT	1.772491536270536	StimuliTable-1776-Mapping-Run6.xlsx	95	végállomás	belvárosi	8	3	2	893	10	4	4	2263	9	4	7	2.1	5.7	5.7	6.1	0.709046066
62.06614680842176	2.0	BASELINE	1.5671863797542755	StimuliTable-1776-Mapping-Run6.xlsx	96	ventilátor	masszív	10	2	2	1165	10	4	3	982	7	2	2	1.6	4.5	5.6	5.5	1.0
74.0657387667452	2.0	BASELINE	1.3434435284943902	StimuliTable-1776-Mapping-Run6.xlsx	17	csillagász	figyelmes	10	2	2	606	10	3	4	1273	9	3	8	1.9	4.4	4.85	5.8	1.0
82.06614424695726	2.0	CLOSE	1.3751583306730026	StimuliTable-1776-Mapping-Run6.xlsx	43	kolbász	méternyi	6	1	2	867	7	2	2	324	8	3	1	2.75	5.95	6.65	5.85	0.762132525
92.0656514207294	2.0	CLOSE	1.175428719121555	StimuliTable-1776-Mapping-Run6.xlsx	54	menetrend	változatlan	8	4	2	4833	9	3	2	3262	11	4	2	1.8	6.25	4.95	7.0	0.812076867
104.06625541461835	2.0	DISTANT	1.3351702466097777	StimuliTable-1776-Mapping-Run6.xlsx	65	olimpikon	bravúros	10	3	2	644	9	4	2	461	8	3	2	2.9	5.15	5.5	6.5	0.613806427
116.0658647909222	2.0	BASELINE	1.4234212334849872	StimuliTable-1776-Mapping-Run6.xlsx	16	csengőhang	többféle	10	1	2	2279	10	3	1	2956	8	3	1	2.25	4.55	3.55	5.8	1.0
128.06547263034008	2.0	BASELINE	0.9670579990342958	StimuliTable-1776-Mapping-Run6.xlsx	38	kerékpár	elektromos	10	4	2	3466	8	3	3	4185	10	4	2	1.75	6.55	6.7	6.95	1.0
136.08187780112348	2.0	CLOSE	0.9827695245912764	StimuliTable-1776-Mapping-Run6.xlsx	56	monitor	érintős	6	4	2	3644	7	3	3	784	7	3	3	1.5	6.55	6.45	6.45	0.8547784690000001
144.08229685710103	2.0	DISTANT	1.702562978149217	StimuliTable-1776-Mapping-Run6.xlsx	14	boríték	lakossági	6	2	2	1364	7	3	3	6638	9	4	7	1.5	3.15	3.85	3.5	0.602748156
152.08169388779788	2.0	BASELINE	1.3827761331704096	StimuliTable-1776-Mapping-Run6.xlsx	53	mellény	sportos	6	1	2	909	7	2	5	700	7	2	7	1.45	5.9	6.0	6.0	1.0
162.08221002337814	2.0	DISTANT	1.0545341421748162	StimuliTable-1776-Mapping-Run6.xlsx	45	kolostor	puritán	8	4	2	1099	8	3	4	301	7	3	1	3.35	5.3	4.6	5.05	0.734071612
174.0818196558248	2.0	DISTANT	1.5507586680687382	StimuliTable-1776-Mapping-Run6.xlsx	21	díszlet	kulturális	10	3	2	1420	7	2	3	24926	10	4	1	1.65	4.6	4.1	4.5	0.683287978
186.08242672347117	2.0	CLOSE	1.206546187211643	StimuliTable-1776-Mapping-Run6.xlsx	55	mikrofon	távközlési	10	4	2	1847	8	3	1	3781	10	4	8	1.75	3.85	3.55	4.2	0.7811700109999999
194.0818511618636	2.0	DISTANT	0.8227744118703413	StimuliTable-1776-Mapping-Run6.xlsx	63	napsütés	hosszas	6	4	2	3340	8	3	2	1776	7	2	7	2.9	5.35	6.4	6.35	0.72304523
204.08234373194864	2.0	CLOSE	1.0625394946182496	StimuliTable-1776-Mapping-Run6.xlsx	66	oroszlán	csendes	8	4	2	1351	8	3	3	2305	7	2	7	2.15	5.45	5.7	6.3	0.851599276
214.0818232418751	2.0	CLOSE	1.1107145391142694	StimuliTable-1776-Mapping-Run6.xlsx	26	fejfájás	borzalmas	8	4	2	1351	8	3	4	1061	9	3	6	5.8	5.95	6.0	6.75	0.831396163
224.0813639708649	2.0	BASELINE	1.57474245090998	StimuliTable-1776-Mapping-Run6.xlsx	95	végállomás	ideiglenes	8	4	2	893	10	4	4	4073	10	5	1	2.95	4.15	3.65	4.7	1.0
234.08186089544324	2.0	CLOSE	1.262787547071639	StimuliTable-1776-Mapping-Run6.xlsx	39	készpénz	szerény	8	4	2	3600	8	2	3	3344	7	2	5	3.2	3.75	4.05	2.25	0.885355115
244.0823539778139	2.0	CLOSE	1.3425098738152883	StimuliTable-1776-Mapping-Run6.xlsx	67	osztályzat	átlagos	8	3	2	1028	10	3	3	10804	7	3	7	3.35	5.85	5.35	6.5	0.816440403
254.08186038315037	2.0	BASELINE	1.1748021843159222	StimuliTable-1776-Mapping-Run6.xlsx	79	szerszám	trükkös	8	2	2	812	8	2	4	689	7	2	7	1.7	3.15	3.55	4.15	1.0
266.0814838475126	2.0	BASELINE	1.0625177221445483	StimuliTable-1776-Mapping-Run6.xlsx	57	műalkotás	korabeli	10	4	2	784	9	4	1	2056	8	4	3	2.0	5.45	4.75	6.2	1.0
274.0818798502951	2.0	DISTANT	1.4468076822449802	StimuliTable-1776-Mapping-Run6.xlsx	78	szemüveg	elsődleges	6	2	2	1594	8	3	4	6398	10	4	1	2.3	4.25	3.75	3.75	0.657139182
284.0813870240672	2.0	CLOSE	1.4144847878342262	StimuliTable-1776-Mapping-Run6.xlsx	93	útmutatás	szellemi	8	2	2	703	9	4	2	6915	8	3	7	3.0	2.9	2.85	5.0	0.7834023237000001
292.0817884059288	2.0	CLOSE	1.1507753688274531	StimuliTable-1776-Mapping-Run6.xlsx	59	műemlék	őshonos	6	2	2	1457	7	3	1	766	7	3	1	2.2	4.0	3.75	4.0	0.769399345
304.0814011121329	2.0	DISTANT	1.4305464659046263	StimuliTable-1776-Mapping-Run6.xlsx	41	királynő	példátlan	10	2	2	2060	8	3	2	2102	9	3	1	2.55	4.55	4.6	5.3	0.661574185
316.08100895155803	2.0	DISTANT	1.3107853380570305	StimuliTable-1776-Mapping-Run6.xlsx	28	gorilla	önzetlen	10	2	2	659	7	3	2	338	8	3	1	2.25	4.35	3.65	4.75	0.626140475
324.0814244214853	2.0	CLOSE	0.9425370765893604	StimuliTable-1776-Mapping-Run6.xlsx	14	boríték	szavazási	6	4	2	1364	7	3	3	407	9	4	7	3.5	6.65	6.65	6.85	0.75406909
332.084819901982	2.0	CLOSE	0.8830193444518954	StimuliTable-1776-Mapping-Run6.xlsx	29	hangszer	könnyűzenei	6	4	2	1828	8	2	3	420	11	5	1	2.1	6.1	6.2	6.25	0.7948508259999999
340.09722278076515	2.0	BASELINE	0.8061312808131333	StimuliTable-1776-Mapping-Run6.xlsx	15	csecsemő	egészséges	6	4	2	2039	8	3	2	7076	10	4	8	2.6	6.5	6.55	6.6	1.0
348.0976321031703	2.0	BASELINE	1.2058676546366769	StimuliTable-1776-Mapping-Run6.xlsx	31	helyezés	végleges	6	4	2	5834	8	3	4	7802	8	3	3	2.95	4.45	3.65	5.2	1.0
356.1140488005549	2.0	CLOSE	1.6934159799202462	StimuliTable-1776-Mapping-Run6.xlsx	92	útlezárás	félpályás	6	4	2	1291	9	4	3	1206	9	3	2	2.95	6.3	6.3	6.3	0.78665024
366.11454085833975	2.0	DISTANT	1.829208560528059	StimuliTable-1776-Mapping-Run6.xlsx	81	szőnyeg	templomi	8	3	2	1303	7	2	1	410	8	3	8	1.9	6.4	6.05	6.5	0.613664091
374.1139647844393	2.0	DISTANT	1.7654426355584292	StimuliTable-1776-Mapping-Run6.xlsx	26	fejfájás	sérüléses	6	1	2	1351	8	3	4	330	9	4	6	4.75	5.5	5.3	5.6	0.629661381
382.1143669347366	2.0	CLOSE	1.8614646006535625	StimuliTable-1776-Mapping-Run6.xlsx	19	diáklány	védtelen	6	3	2	819	8	3	4	650	8	3	5	4.7	5.4	6.25	6.05	0.762401283
390.11777086807706	2.0	BASELINE	0.9138394262481596	StimuliTable-1776-Mapping-Run6.xlsx	80	színdarab	humoros	6	4	2	571	9	3	1	799	7	3	7	2.85	5.95	5.95	6.8	1.0
402.1303714921014	2.0	DISTANT	1.1728073139092885	StimuliTable-1776-Mapping-Run6.xlsx	83	tananyag	akadémiai	10	4	2	1192	8	3	3	833	9	6	2	3.25	5.3	4.35	6.45	0.6859960559999999
414.130990342499	2.0	BASELINE	1.5647686111697112	StimuliTable-1776-Mapping-Run6.xlsx	42	kirándulás	hétvégi	10	4	2	1896	10	4	4	4177	7	3	5	2.95	6.05	6.3	6.9	1.0
422.1303855801671	2.0	DISTANT	1.4526101731753442	StimuliTable-1776-Mapping-Run6.xlsx	72	rémálom	erőszakos	6	2	2	769	7	3	1	4257	9	4	1	6.5	4.55	5.7	6.0	0.626735747
434.1299644750106	2.0	BASELINE	1.148800734015822	StimuliTable-1776-Mapping-Run6.xlsx	93	útmutatás	erkölcsi	10	4	2	703	9	4	2	4377	8	3	7	3.2	4.1	2.7	6.3	1.0
444.1304959793925	2.0	CLOSE	1.0925286365600186	StimuliTable-1776-Mapping-Run6.xlsx	27	folyadék	optimális	8	2	2	1438	8	3	3	1679	9	4	2	1.8	3.5	3.45	3.25	0.841039181
456.1301317387988	2.0	DISTANT	1.540786877500068	StimuliTable-1776-Mapping-Run6.xlsx	38	kerékpár	hardveres	10	2	2	3466	8	3	3	1550	9	3	5	1.65	2.65	1.5	2.4	0.6436905860000001
464.1305377313038	2.0	CLOSE	0.8205031591860461	StimuliTable-1776-Mapping-Run6.xlsx	44	kollégium	felsőoktatási	6	4	2	3139	9	4	3	5953	13	6	1	3.0	6.65	6.25	6.7	0.8090670109999999
474.1300221080164	2.0	BASELINE	0.9887930701079312	StimuliTable-1776-Mapping-Run6.xlsx	40	kesztyű	férfias	8	1	2	891	7	2	1	506	7	3	6	1.7	5.45	4.85	5.4	1.0
484.1305374751537	2.0	BASELINE	1.2524955731423688	StimuliTable-1776-Mapping-Run6.xlsx	73	repülőjegy	érvényes	8	4	2	590	10	4	0	10878	8	3	6	2.8	6.75	6.4	6.9	1.0
492.1339301380358	2.0	DISTANT	1.4571434572644648	StimuliTable-1776-Mapping-Run6.xlsx	67	osztályzat	alapfokú	6	3	2	1028	10	3	3	821	8	4	4	2.6	4.3	2.9	3.95	0.713177145
500.1463537646996	2.0	BASELINE	0.9241078346822178	StimuliTable-1776-Mapping-Run6.xlsx	63	napsütés	felhőtlen	6	4	2	3340	8	3	2	612	9	3	1	3.0	6.1	6.45	6.6	1.0
512.1499518572309	2.0	DISTANT	1.384593493923603	StimuliTable-1776-Mapping-Run6.xlsx	82	találmány	kapitalista	10	3	2	1346	9	3	4	357	11	5	1	3.35	4.65	3.95	5.1	0.6249907020000001
522.1634676933681	2.0	DISTANT	1.2513951669752714	StimuliTable-1776-Mapping-Run6.xlsx	53	mellény	kamionos	8	1	2	909	7	2	5	543	8	4	7	1.4	6.25	5.7	6.1	0.629222572
530.1668629177148	2.0	CLOSE	0.0	StimuliTable-1776-Mapping-Run6.xlsx	68	ösztöndíj	képzési	6	0	2	2344	9	3	1	2239	7	3	7	3.6	5.6	4.35	6.55	0.819112897
542.1794691769683	2.0	CLOSE	0.8507392265382805	StimuliTable-1776-Mapping-Run6.xlsx	57	műalkotás	reneszánsz	10	4	2	784	9	4	1	1591	10	3	3	2.25	6.25	6.1	6.6	0.743859231
552.1829853025556	2.0	DISTANT	1.39916388598067	StimuliTable-1776-Mapping-Run6.xlsx	79	szerszám	illegális	8	2	2	812	8	2	4	5833	9	4	1	3.8	4.1	3.65	5.05	0.606139541
564.19660052361	2.0	BASELINE	0.8020882614873699	StimuliTable-1776-Mapping-Run6.xlsx	88	törmelék	építkezési	10	4	2	730	8	3	1	395	10	5	7	1.9	6.55	6.8	6.4	1.0
576.1961917134977	2.0	BASELINE	1.0980383518181045	StimuliTable-1776-Mapping-Run6.xlsx	89	tudomány	mérnöki	10	4	2	3986	8	3	5	877	7	3	6	1.7	4.75	3.4	6.0	1.0
586.1966988839413	2.0	DISTANT	1.281887381010165	StimuliTable-1776-Mapping-Run6.xlsx	77	szélvihar	kíméletlen	8	3	2	490	9	3	0	564	10	4	2	5.5	5.75	6.05	6.5	0.6293716429999999
596.2132116363282	2.0	DISTANT	0.8414180485560792	StimuliTable-1776-Mapping-Run6.xlsx	51	magazin	állatorvosi	8	4	2	7307	7	3	2	356	11	5	6	1.6	5.7	5.95	6.65	0.735963702
606.2127188101003	2.0	CLOSE	1.4251791682036128	StimuliTable-1776-Mapping-Run6.xlsx	94	vacsora	meghívásos	8	1	2	2517	7	3	1	352	10	4	5	2.1	5.8	4.1	6.45	0.7889098529999999
616.213225468251	2.0	CLOSE	1.289446782066079	StimuliTable-1776-Mapping-Run6.xlsx	72	rémálom	sajnálatos	8	1	2	769	7	3	1	2647	10	4	3	5.4	3.75	4.3	4.45	0.833719671
628.2128340761119	2.0	DISTANT	1.3451661149738356	StimuliTable-1776-Mapping-Run6.xlsx	32	horgász	járatos	10	1	2	707	7	2	2	317	7	3	6	1.45	4.9	3.05	5.0	0.6454380751
638.2293381195195	2.0	BASELINE	0.9287356368949986	StimuliTable-1776-Mapping-Run6.xlsx	55	mikrofon	vezetékes	8	4	2	1847	8	3	1	3193	9	4	8	1.25	6.45	6.75	6.25	1.0
646.22975768779	2.0	CLOSE	0.9125051581504522	StimuliTable-1776-Mapping-Run6.xlsx	52	matrica	ingyenes	6	4	2	1479	7	3	2	13952	8	3	1	2.65	6.2	4.8	6.5	0.863539815
