onset	duration	trial_type	response_time	stim_list	itemno	noun	adjective	jitter	response	counterbalance	noun_freq	noun_char	noun_syll	noun_phon	adj_freq	adj_char	adj_syll	adj_phon	arousal	concreteness	imageability	meaningfulness	cosine
28.06624354865926	2.0	CLOSE	1.1502697338873986	StimuliTable-7199-Mapping-Run1.xlsx	67	osztályzat	átlagos	10	3	1	1028	10	3	3	10804	7	3	7	3.35	5.85	5.35	6.5	0.816440403
36.06656962172201	2.0	DISTANT	1.286258594638639	StimuliTable-7199-Mapping-Run1.xlsx	31	helyezés	időszaki	6	2	1	5834	8	3	4	796	8	4	1	2.25	2.55	1.65	2.85	0.617949784
46.08306333476139	2.0	DISTANT	1.5255498608712514	StimuliTable-7199-Mapping-Run1.xlsx	66	oroszlán	jelentéktelen	8	2	1	1351	8	3	3	1068	13	5	3	4.0	3.05	3.55	3.15	0.658192992
58.08658507753353	2.0	BASELINE	1.5300779988283466	StimuliTable-7199-Mapping-Run1.xlsx	16	csengőhang	többféle	10	2	1	2279	10	3	1	2956	8	3	1	2.25	4.55	3.55	5.8	1.0
66.09898584361144	2.0	CLOSE	1.1409370771216345	StimuliTable-7199-Mapping-Run1.xlsx	100	zöldség	gyakori	6	2	1	2637	7	2	3	6043	7	3	1	1.45	4.1	3.9	5.0	0.840808868
76.10239437012933	2.0	DISTANT	1.2255229399961536	StimuliTable-7199-Mapping-Run1.xlsx	13	bölcsőde	lokális	8	2	1	1219	8	3	1	578	7	3	3	1.75	4.7	5.35	6.55	0.6315799952000001
84.11580665429938	2.0	CLOSE	1.5082774658912967	StimuliTable-7199-Mapping-Run1.xlsx	72	rémálom	sajnálatos	6	1	1	769	7	3	1	2647	10	4	3	5.4	3.75	4.3	4.45	0.833719671
94.1162518349629	2.0	DISTANT	1.524006328840187	StimuliTable-7199-Mapping-Run1.xlsx	89	tudomány	genetikai	8	3	1	3986	8	3	5	1398	9	5	2	2.4	4.8	2.6	5.45	0.662602782
106.13179448022127	2.0	CLOSE	1.283588791386137	StimuliTable-7199-Mapping-Run1.xlsx	83	tananyag	közoktatási	10	4	1	1192	8	3	3	2515	11	5	5	4.3	5.05	4.0	6.25	0.8000201579999999
118.13531033165054	2.0	DISTANT	1.6561222715063195	StimuliTable-7199-Mapping-Run1.xlsx	76	szakadék	kedvezőtlen	10	2	1	1478	8	3	4	3202	11	4	2	3.95	2.85	3.3	2.35	0.659476936
126.14869879429898	2.0	BASELINE	1.594864592589147	StimuliTable-7199-Mapping-Run1.xlsx	1	akadály	lehetetlen	6	3	1	6030	7	3	2	5822	10	4	6	5.4	4.65	3.6	6.3	1.0
136.14917753000557	2.0	DISTANT	0.0	StimuliTable-7199-Mapping-Run1.xlsx	2	albérlet	hátrányos	8	0	1	547	8	3	1	5583	9	3	6	4.3	4.4	4.3	4.05	0.60664767
148.16471018559605	2.0	CLOSE	1.1782728270991356	StimuliTable-7199-Mapping-Run1.xlsx	96	ventilátor	erőteljes	10	2	1	1165	10	4	3	3772	9	4	1	2.75	5.75	5.6	5.45	0.84082365
156.16507621733763	2.0	BASELINE	1.657958577707177	StimuliTable-7199-Mapping-Run1.xlsx	29	hangszer	autentikus	6	3	1	1828	8	2	3	526	10	5	1	2.0	4.6	3.7	4.7	1.0
168.18162269632376	2.0	DISTANT	1.8175722387604765	StimuliTable-7199-Mapping-Run1.xlsx	57	műalkotás	posztmodern	10	3	1	784	9	4	1	346	11	3	1	2.75	5.65	4.95	6.05	0.619737864
178.18509423460273	2.0	BASELINE	1.3581434890547823	StimuliTable-7199-Mapping-Run1.xlsx	55	mikrofon	vezetékes	8	3	1	1847	8	3	1	3193	9	4	8	1.25	6.45	6.75	6.25	1.0
186.19844401930092	2.0	BASELINE	1.416938074038626	StimuliTable-7199-Mapping-Run1.xlsx	10	barátnő	középkorú	6	2	1	3479	7	3	1	1253	9	4	8	1.95	5.9	5.5	6.1	1.0
194.197814157822	2.0	CLOSE	1.6806758549428196	StimuliTable-7199-Mapping-Run1.xlsx	79	szerszám	alattomos	6	2	1	812	8	2	4	304	9	4	1	3.2	2.5	2.4	2.45	0.781269133
204.1982693281534	2.0	CLOSE	1.3049897375349246	StimuliTable-7199-Mapping-Run1.xlsx	18	csomagolás	tetszetős	8	3	1	1577	10	4	4	725	9	3	1	2.1	5.45	6.35	6.25	0.890869737
214.19772322621063	2.0	BASELINE	1.3686889941745903	StimuliTable-7199-Mapping-Run1.xlsx	4	alkohol	legális	8	2	1	3138	7	3	2	1848	7	3	3	2.75	5.45	5.2	5.3	1.0
224.1971906999752	2.0	CLOSE	1.8089524345741663	StimuliTable-7199-Mapping-Run1.xlsx	52	matrica	ingyenes	8	3	1	1479	7	3	2	13952	8	3	1	2.65	6.2	4.8	6.5	0.863539815
234.1976471510352	2.0	DISTANT	1.1206726480013458	StimuliTable-7199-Mapping-Run1.xlsx	100	zöldség	korlátlan	8	2	1	2637	7	2	3	1924	9	3	2	2.05	3.9	4.75	3.95	0.7183503509999999
244.1971013052389	2.0	CLOSE	1.728959258285613	StimuliTable-7199-Mapping-Run1.xlsx	88	törmelék	bontási	8	3	1	730	8	3	1	388	7	3	8	2.1	6.2	5.95	6.35	0.8136036990000001
254.19754315601315	2.0	DISTANT	1.5126713836689305	StimuliTable-7199-Mapping-Run1.xlsx	3	alkatrész	karbantartási	8	3	1	2625	9	3	2	503	13	5	4	1.55	4.7	4.65	4.65	0.6785420179
266.1970951577496	2.0	DISTANT	1.616954825945868	StimuliTable-7199-Mapping-Run1.xlsx	21	díszlet	kulturális	10	1	1	1420	7	2	3	24926	10	4	1	1.65	4.6	4.1	4.5	0.683287978
276.1975510965204	2.0	BASELINE	1.4566941416742338	StimuliTable-7199-Mapping-Run1.xlsx	53	mellény	sportos	8	3	1	909	7	2	5	700	7	2	7	1.45	5.9	6.0	6.0	1.0
284.2139164807268	2.0	BASELINE	1.536323335381894	StimuliTable-7199-Mapping-Run1.xlsx	87	tévéműsor	félelmetes	6	2	1	648	9	4	1	1112	10	4	2	5.45	5.8	5.05	6.6	1.0
292.2142443468074	2.0	CLOSE	1.3360358378122328	StimuliTable-7199-Mapping-Run1.xlsx	33	iránytű	előnyös	6	3	1	794	7	3	2	2414	7	3	1	1.35	2.9	3.25	2.35	0.8048268559999999
302.21373922812563	2.0	CLOSE	1.2242949790634157	StimuliTable-7199-Mapping-Run1.xlsx	65	olimpikon	világhírű	8	3	1	644	9	4	2	2877	9	4	4	2.25	6.3	5.75	6.9	0.8306809070000001
310.2131014261395	2.0	DISTANT	1.4242861164348142	StimuliTable-7199-Mapping-Run1.xlsx	90	tűzijáték	verhetetlen	6	2	1	1585	9	4	1	357	11	4	2	2.4	3.2	4.55	3.15	0.664982438
322.2136590546252	2.0	CLOSE	1.112300536391558	StimuliTable-7199-Mapping-Run1.xlsx	64	novella	beszédes	10	3	1	925	7	3	1	637	8	3	7	3.3	4.4	3.75	4.9	0.783685148
330.21300844536745	2.0	BASELINE	1.6883238435730163	StimuliTable-7199-Mapping-Run1.xlsx	22	díszterem	patinás	6	1	1	1123	9	3	1	802	7	3	4	2.3	5.2	5.55	5.05	1.0
342.2125553242004	2.0	CLOSE	1.7282750939848484	StimuliTable-7199-Mapping-Run1.xlsx	15	csecsemő	normális	10	2	1	2039	8	3	2	4470	8	3	4	2.95	4.65	4.75	4.45	0.7993261220000001
354.21312780911467	2.0	CLOSE	1.4480359156805207	StimuliTable-7199-Mapping-Run1.xlsx	31	helyezés	jogerős	10	3	1	5834	8	3	4	4058	7	3	1	2.55	2.65	1.5	3.3	0.78364414
364.212572998229	2.0	BASELINE	1.25633927787203	StimuliTable-7199-Mapping-Run1.xlsx	13	bölcsőde	szomszédos	8	1	1	1219	8	3	1	5450	10	3	7	1.7	6.1	5.1	6.55	1.0
374.2129818062495	2.0	CLOSE	1.6480457516627212	StimuliTable-7199-Mapping-Run1.xlsx	27	folyadék	optimális	8	4	1	1438	8	3	3	1679	9	4	2	1.8	3.5	3.45	3.25	0.841039181
386.2125601909611	2.0	BASELINE	1.176346870019188	StimuliTable-7199-Mapping-Run1.xlsx	51	magazin	tudományos	10	3	1	7307	7	3	2	11632	10	4	5	1.8	6.3	6.45	6.15	1.0
394.212929552592	2.0	DISTANT	1.1040751960863415	StimuliTable-7199-Mapping-Run1.xlsx	73	repülőjegy	azonnali	6	2	1	590	10	4	0	6934	8	4	2	2.4	6.0	5.7	6.2	0.665511608
402.2122904698808	2.0	BASELINE	1.4882768665120238	StimuliTable-7199-Mapping-Run1.xlsx	63	napsütés	felhőtlen	6	3	1	3340	8	3	2	612	9	3	1	3.0	6.1	6.45	6.6	1.0
410.2126216658508	2.0	CLOSE	1.6642630838396144	StimuliTable-7199-Mapping-Run1.xlsx	80	színdarab	mulatságos	6	3	1	571	9	3	1	401	10	4	5	3.3	5.9	6.2	6.9	0.8485735059999999
418.2160202026971	2.0	DISTANT	1.5408197113101778	StimuliTable-7199-Mapping-Run1.xlsx	54	menetrend	naprakész	6	1	1	4833	9	3	2	816	9	3	1	2.3	5.35	4.4	6.1	0.7033958440000001
426.2283625676319	2.0	DISTANT	1.6396080668382638	StimuliTable-7199-Mapping-Run1.xlsx	77	szélvihar	kíméletlen	6	2	1	490	9	3	0	564	10	4	2	5.5	5.75	6.05	6.5	0.6293716429999999
438.2318986545433	2.0	BASELINE	1.6521253790597257	StimuliTable-7199-Mapping-Run1.xlsx	32	horgász	tradicionális	10	2	1	707	7	2	2	850	13	6	1	2.1	4.65	5.0	4.65	1.0
450.2454835806966	2.0	CLOSE	1.9029498469899409	StimuliTable-7199-Mapping-Run1.xlsx	98	zarándok	vallásos	10	2	1	1047	8	3	2	1343	8	3	5	2.25	5.35	5.7	5.8	0.8485714790000001
462.24503199640094	2.0	DISTANT	1.406961723940185	StimuliTable-7199-Mapping-Run1.xlsx	5	állatkert	alternatív	10	2	1	2056	9	3	3	4055	10	4	1	2.15	2.55	2.75	2.7	0.67844069
474.24555094692914	2.0	BASELINE	1.574702877765958	StimuliTable-7199-Mapping-Run1.xlsx	94	vacsora	zártkörű	10	3	1	2517	7	3	1	562	8	3	1	2.45	5.85	5.4	6.9	1.0
482.2449502860254	2.0	DISTANT	1.3589657157099282	StimuliTable-7199-Mapping-Run1.xlsx	52	matrica	kedvezményes	6	3	1	1479	7	3	2	3115	12	4	6	1.9	5.2	5.8	6.1	0.701929092
494.2444871751832	2.0	DISTANT	1.7267033859570802	StimuliTable-7199-Mapping-Run1.xlsx	29	hangszer	vezérkari	10	4	1	1828	8	2	3	996	9	4	6	1.6	4.65	4.05	4.85	0.6304627660000001
504.24494465082535	2.0	BASELINE	1.647002471549058	StimuliTable-7199-Mapping-Run1.xlsx	58	műanyag	felesleges	8	2	1	3590	7	3	1	4304	10	4	7	3.55	4.95	5.15	6.3	1.0
512.2443193999643	2.0	BASELINE	1.3267597891717742	StimuliTable-7199-Mapping-Run1.xlsx	56	monitor	kijelzős	6	4	1	3644	7	3	3	489	8	3	2	1.25	6.0	6.15	5.15	1.0
522.2447755948779	2.0	CLOSE	1.1829825721251837	StimuliTable-7199-Mapping-Run1.xlsx	4	alkohol	biztonságos	8	2	1	3138	7	3	2	8412	11	4	6	3.5	2.55	2.7	3.1	0.75390619
532.2441944010206	2.0	BASELINE	1.1989960125865764	StimuliTable-7199-Mapping-Run1.xlsx	69	pénztárca	ismeretlen	8	2	1	1902	9	3	3	17883	10	4	7	3.55	4.9	4.9	6.15	1.0
542.243686208596	2.0	CLOSE	1.1829964039752667	StimuliTable-7199-Mapping-Run1.xlsx	7	ásványvíz	színvonalas	8	2	1	963	9	3	1	1782	11	4	5	1.5	3.65	3.15	3.4	0.7986723179999999
550.2440040850051	2.0	CLOSE	1.4549905187814147	StimuliTable-7199-Mapping-Run1.xlsx	30	háziorvos	türelmetlen	6	1	1	2011	9	4	4	480	11	4	1	4.55	6.25	5.95	6.6	0.7620039581999999
560.2474710126662	2.0	DISTANT	0.9634928803097864	StimuliTable-7199-Mapping-Run1.xlsx	79	szerszám	illegális	8	2	1	812	8	2	4	5833	9	4	1	3.8	4.1	3.65	5.05	0.606139541
572.2610444122765	2.0	BASELINE	0.998111696291744	StimuliTable-7199-Mapping-Run1.xlsx	84	tanfolyam	gyakorlati	10	3	1	1871	9	3	2	3948	10	4	8	1.9	6.1	4.1	6.1	1.0
584.2605864243451	2.0	DISTANT	0.966333788674092	StimuliTable-7199-Mapping-Run1.xlsx	65	olimpikon	bravúros	10	2	1	644	9	4	2	461	8	3	2	2.9	5.15	5.5	6.5	0.613806427
592.2599560505769	2.0	BASELINE	1.486357569210668	StimuliTable-7199-Mapping-Run1.xlsx	6	áruházlánc	veszteséges	6	3	1	935	10	4	2	1234	11	4	8	2.7	4.85	4.1	5.9	1.0
604.2605026648089	2.0	CLOSE	1.014374622343894	StimuliTable-7199-Mapping-Run1.xlsx	28	gorilla	problémás	10	2	1	659	7	3	2	1593	9	3	8	3.3	4.7	4.55	4.65	0.775599658
612.2598305393403	2.0	DISTANT	0.9180875264100904	StimuliTable-7199-Mapping-Run1.xlsx	98	zarándok	püspöki	6	2	1	1047	8	3	2	1773	7	3	6	1.9	4.4	4.0	4.2	0.736171305
624.2603779220117	2.0	DISTANT	1.278362913428282	StimuliTable-7199-Mapping-Run1.xlsx	53	mellény	kamionos	10	3	1	909	7	2	5	543	8	4	7	1.4	6.25	5.7	6.1	0.629222572
634.2598331007939	2.0	BASELINE	1.742050080007175	StimuliTable-7199-Mapping-Run1.xlsx	77	szélvihar	hirtelen	8	1	1	490	9	3	0	6756	8	3	4	4.6	6.2	6.2	6.65	1.0
646.2594176329949	2.0	BASELINE	0.9983770628969068	StimuliTable-7199-Mapping-Run1.xlsx	66	oroszlán	nyugodt	10	2	1	1351	8	3	3	2967	7	2	2	2.1	5.9	6.5	6.35	1.0
