onset	duration	trial_type	response_time	stim_list	itemno	noun	adjective	order	response	correctness	noun_freq	noun_char	noun_syll	noun_phon	adj_freq	adj_char	adj_syll	adj_phon	arousal	concreteness	imageability	meaningfulness	cosine
22.1239682144078	2.0	CLOSE	1.2766288092352625	12_1	1	akadály	lehetetlen	1	good	0	6030	7	3	2	5822	10	4	6	5.4	4.65	3.6	6.3	1.0
26.129166940954747	2.0	REPEAT	1.039372874154651	12_1	51	magazin	tudományos	1	good	1	7307	7	3	2	11632	10	4	5	1.8	6.3	6.45	6.15	1.0
30.129358537695225	2.0	DISTANT	1.3674564226275834	12_1	76	szakadék	iszonyatos	1	no-good	0	1478	8	3	4	452	10	4	6	5.1	4.75	5.85	5.65	1.0
36.12860470185478	2.0	REPEAT	1.1754344801884145	12_1	52	matrica	fizetős	1	good	1	1479	7	3	2	2152	7	3	2	2.75	5.8	5.4	5.6	1.0
42.132871315378	2.0	CLOSE	0.9318035989963392	12_1	2	albérlet	szegényes	1	no-good	1	547	8	3	1	439	9	3	7	4.5	5.55	6.5	6.05	1.0
52.14535251110647	2.0	FILLER	0.950883355748374	12_1	76	népcsoport	kétnyelvű	1	no-good		847	10	3	4	1121	9	3	1	1.85	5.55	4.5	6.55	0.0
58.14562171989746	2.0	CLOSE	0.998685461934656	12_1	3	alkatrész	műszaki	1	good	0	2625	9	3	2	11955	7	3	1	1.6	5.9	5.6	6.45	1.0
64.16190001467476	2.0	FILLER	0.910107317227812	12_1	77	nézőpont	kézenfekvő	1	no-good		1480	8	3	1	875	10	4	1	2.05	3.9	2.25	4.45	0.0
74.16233956014185	2.0	FILLER	1.2860823666196666	12_1	78	nyereség	pillanatnyi	1	no-good		4712	8	3	5	1179	11	4	2	3.8	4.45	3.25	6.35	0.0
80.16562923520178	2.0	REPEAT	0.978900280813832	12_1	53	mellény	sportos	1	no-good	1	909	7	2	5	700	7	2	7	1.45	5.9	6.0	6.0	1.0
88.17799414092951	2.0	REPEAT	0.9176751323575444	12_1	54	menetrend	szokásos	1	no-good	1	4833	9	3	2	8246	8	3	6	1.7	5.4	4.45	6.65	1.0
94.1782774377134	2.0	DISTANT	1.0774455543796648	12_1	77	szélvihar	hirtelen	1	no-good	0	490	9	3	0	6756	8	3	4	4.6	6.2	6.2	6.65	1.0
104.17873337648416	2.0	FILLER	0.8856228930417274	12_1	79	olvasmány	irodalmi	1	good		593	9	3	0	4601	8	4	7	2.85	5.4	6.35	6.85	0.0
112.1780881462837	2.0	REPEAT	1.2695901904517086	12_1	55	mikrofon	vezetékes	1	good	1	1847	8	3	1	3193	9	4	8	1.25	6.45	6.75	6.25	1.0
118.17837093077831	2.0	DISTANT	1.1171678108257763	12_1	78	szemüveg	kényelmes	1	good	1	1594	8	3	4	3437	9	3	8	2.15	6.1	6.05	6.7	1.0
122.18157402870202	2.0	DISTANT	0.9701974855233856	12_1	79	szerszám	trükkös	1	no-good	1	812	8	2	4	689	7	2	7	1.7	3.15	3.55	4.15	1.0
132.19500040086496	2.0	FILLER	1.0928035188226204	12_1	80	operatőr	hivatásos	1	good		1019	8	4	2	3472	9	4	7	1.35	6.55	5.95	6.55	0.0
138.19527370798096	2.0	DISTANT	1.0364825297328937	12_1	80	színdarab	humoros	1	good	1	571	9	3	1	799	7	3	7	2.85	5.95	5.95	6.8	1.0
144.21151255637233	2.0	REPEAT	1.1800886416713183	12_1	56	monitor	kijelzős	1	no-good	1	3644	7	3	3	489	8	3	2	1.25	6.0	6.15	5.15	1.0
150.21082147615016	2.0	CLOSE	1.1801157930785848	12_1	1	akadály	reménytelen	2	no-good	0	6030	7	3	2	1273	11	4	4	4.8	3.9	2.9	4.5	0.8418771620000001
156.2110904287947	2.0	REPEAT	0.9880833486786288	12_1	51	magazin	tudományos	2	good	1	7307	7	3	2	11632	10	4	5	1.8	6.3	6.45	6.15	1.0
162.21439137425114	2.0	FILLER	1.0406423306376382	12_1	81	őrmester	méltatlan	1	no-good		552	8	3	1	1723	9	3	2	3.5	4.7	3.3	5.3	0.0
170.2277434642565	2.0	FILLER	0.987429921828152	12_1	82	országrész	középső	1	no-good		1927	10	3	3	3447	7	3	1	1.4	6.0	5.65	6.75	0.0
174.22787896516093	2.0	CLOSE	0.9794284525742114	12_1	4	alkohol	legális	1	no-good	1	3138	7	3	2	1848	7	3	3	2.75	5.45	5.2	5.3	1.0
182.23124394696424	2.0	DISTANT	1.0242182891379343	12_1	81	szőnyeg	használati	1	no-good	1	1303	7	2	1	1806	10	4	5	1.9	3.55	4.25	3.8	1.0
188.24452995146203	2.0	DISTANT	1.1547394706940397	12_1	76	szakadék	kedvezőtlen	2	good	0	1478	8	3	4	3202	11	4	2	3.95	2.85	3.3	2.35	0.659476936
192.24373769381415	2.0	REPEAT	0.9707827777056082	12_1	52	matrica	fizetős	2	no-good	1	1479	7	3	2	2152	7	3	2	2.75	5.8	5.4	5.6	1.0
198.2440110009302	2.0	DISTANT	1.402450235436845	12_1	82	találmány	forradalmi	1	good	1	1346	9	3	4	2505	10	4	3	2.9	4.5	4.35	6.45	1.0
210.2605592729342	2.0	CLOSE	1.0741189943837526	12_1	2	albérlet	siralmas	2	no-good	1	547	8	3	1	402	8	3	5	5.05	5.45	6.05	6.0	0.7793105840000001
218.2609089113721	2.0	CLOSE	0.0	12_1	3	alkatrész	technikai	2		0	2625	9	3	2	7859	9	4	3	2.15	4.85	4.45	5.45	0.8308419585
224.2772043678924	2.0	REPEAT	0.9296850205937516	12_1	57	műalkotás	korabeli	1	no-good	1	784	9	4	1	2056	8	4	3	2.0	5.45	4.75	6.2	1.0
234.27666338885683	2.0	FILLER	1.241474905564246	12_1	83	pályafutás	dicséretes	1	no-good		3897	10	4	5	469	10	4	8	3.05	4.7	4.6	5.5	0.0
240.2768936635512	2.0	REPEAT	1.025660643750598	12_1	54	menetrend	szokásos	2	good	1	4833	9	3	2	8246	8	3	6	1.7	5.4	4.45	6.65	1.0
250.29339326793345	2.0	REPEAT	0.9527573153172852	12_1	53	mellény	sportos	2	no-good	1	909	7	2	5	700	7	2	7	1.45	5.9	6.0	6.0	1.0
256.29363071469925	2.0	REPEAT	1.0484939548405237	12_1	58	műanyag	felesleges	1	no-good	1	3590	7	3	1	4304	10	4	7	3.55	4.95	5.15	6.3	1.0
268.293166323132	2.0	DISTANT	1.6888694332228624	12_1	77	szélvihar	kíméletlen	2	no-good	0	490	9	3	0	564	10	4	2	5.5	5.75	6.05	6.5	0.6293716429999999
272.2933817413941	2.0	REPEAT	1.0968139869728477	12_1	55	mikrofon	vezetékes	2	no-good	1	1847	8	3	1	3193	9	4	8	1.25	6.45	6.75	6.25	1.0
278.2936596591244	2.0	DISTANT	1.1684962703984638	12_1	79	szerszám	illegális	2	no-good	1	812	8	2	4	5833	9	4	1	3.8	4.1	3.65	5.05	0.606139541
284.30991618154803	2.0	DISTANT	1.0641072962243925	12_1	78	szemüveg	elsődleges	2	no-good	1	1594	8	3	4	6398	10	4	1	2.3	4.25	3.75	3.75	0.657139182
290.3092176731079	2.0	DISTANT	1.488143414771912	12_1	80	színdarab	társulati	2	good	1	571	9	3	1	342	9	4	7	2.45	5.8	5.8	5.1	0.6175254579999999
300.3126630845581	2.0	FILLER	1.3887528614650364	12_1	84	parancs	vitathatatlan	1	no-good		4012	7	2	4	667	13	5	1	4.3	5.7	3.1	6.05	0.0
308.3260282379779	2.0	CLOSE	1.0316639229204156	12_1	5	állatkert	egzotikus	1	no-good	0	2056	9	3	3	643	9	4	1	2.95	5.45	5.6	6.45	1.0
318.326484176745	2.0	REPEAT	1.463195879747218	12_1	56	monitor	kijelzős	2	no-good	1	3644	7	3	3	489	8	3	2	1.25	6.0	6.15	5.15	1.0
324.3427540187258	2.0	REPEAT	1.2706990437836794	12_1	59	műemlék	természeti	1	no-good	1	1457	7	3	1	3805	10	4	6	2.45	4.95	5.05	4.45	1.0
330.3429945392345	2.0	CLOSE	1.2067966638569487	12_1	4	alkohol	biztonságos	2	no-good	1	3138	7	3	2	8412	11	4	6	3.5	2.55	2.7	3.1	0.75390619
342.3455613720471	2.0	REPEAT	1.0755505908855412	12_1	60	mutatvány	szánalmas	1	no-good	1	716	9	3	3	685	9	3	4	4.45	4.9	3.5	6.1	1.0
348.3588281656412	2.0	DISTANT	1.0223504770583531	12_1	81	szőnyeg	templomi	2	no-good	1	1303	7	2	1	410	8	3	8	1.9	6.4	6.05	6.5	0.613664091
358.3592841044119	2.0	DISTANT	1.11793445393414	12_1	83	tananyag	iskolai	1	good	0	1192	8	3	3	5542	7	4	3	3.9	5.65	4.85	6.9	1.0
366.3756735662828	2.0	DISTANT	1.7414442961926395	12_1	82	találmány	kapitalista	2	no-good	1	1346	9	3	4	357	11	5	1	3.35	4.65	3.95	5.1	0.6249907020000001
374.37506445257895	2.0	FILLER	1.093470777526818	12_1	85	párbeszéd	kötetlen	1	good		6299	9	3	3	695	8	3	5	2.4	5.3	4.4	6.65	0.0
380.375322134827	2.0	CLOSE	1.213209775633004	12_1	6	áruházlánc	veszteséges	1	no-good	1	935	10	4	2	1234	11	4	8	2.7	4.85	4.1	5.9	1.0
384.3914948977108	2.0	REPEAT	1.7490098060115995	12_1	57	műalkotás	korabeli	2	good	1	784	9	4	1	2056	8	4	3	2.0	5.45	4.75	6.2	1.0
388.3916887997621	2.0	REPEAT	1.420818420338037	12_1	61	művészet	vizuális	1	good	1	6299	8	3	1	1406	8	4	1	2.15	4.8	4.3	5.65	1.0
398.39214345780056	2.0	REPEAT	1.1005406460426457	12_1	62	nagymama	kedvenc	1	no-good	1	1874	8	3	1	9838	7	2	3	3.25	6.0	5.9	6.8	1.0
404.4084030539671	2.0	FILLER	1.4920957379217723	12_1	86	pontszám	egyenlő	1	no-good		1320	8	2	3	4474	7	3	1	2.5	6.1	5.25	5.9	0.0
412.4087350183763	2.0	REPEAT	1.1963525923056295	12_1	63	napsütés	felhőtlen	1	no-good	1	3340	8	3	2	612	9	3	1	3.0	6.1	6.45	6.6	1.0
420.4081512630655	2.0	REPEAT	1.1560916621347133	12_1	58	műanyag	felesleges	2	no-good	1	3590	7	3	1	4304	10	4	7	3.55	4.95	5.15	6.3	1.0
432.4246836540551	2.0	FILLER	1.699680817248009	12_1	87	protokoll	sebészeti	1	no-good		1295	9	3	3	459	9	4	5	4.45	5.6	3.3	6.25	0.0
440.425047636636	2.0	REPEAT	1.7394240776156948	12_1	64	novella	tanulságos	1	good	0	925	7	3	1	805	10	4	6	2.45	5.4	3.05	6.5	1.0
444.4242423155738	2.0	FILLER	1.5796941265580244	12_1	63	laktanya	községi	1	good		1021	8	3	3	670	7	3	5	2.4	5.45	5.1	4.6	0.0
454.42469646132304	2.0	DISTANT	1.339466392830218	12_1	84	tanfolyam	gyakorlati	1	good	0	1871	9	3	2	3948	10	4	8	1.9	6.1	4.1	6.1	1.0
466.42423411892014	2.0	REPEAT	1.1794756857852915	12_1	65	olimpikon	legendás	1	no-good	1	644	9	4	2	3949	8	3	5	2.15	5.8	5.5	6.6	1.0
474.424606810444	2.0	REPEAT	0.9874732103962742	12_1	66	oroszlán	nyugodt	1	no-good	0	1351	8	3	3	2967	7	2	2	2.1	5.9	6.5	6.35	1.0
478.4247815015879	2.0	CLOSE	1.427218468699721	12_1	5	állatkert	különleges	2	no-good	0	2056	9	3	3	12581	10	4	1	2.5	4.8	5.2	5.4	0.8002586359999999
486.4411320293657	2.0	CLOSE	1.3230482426770322	12_1	7	ásványvíz	minőségi	1	no-good	1	963	9	3	1	4832	8	4	2	1.85	6.05	5.25	6.4	1.0
492.4404304471791	2.0	REPEAT	1.4268332260508032	12_1	59	műemlék	természeti	2	no-good	1	1457	7	3	1	3805	10	4	6	2.45	4.95	5.05	4.45	1.0
500.4407590816954	2.0	REPEAT	1.154879838362831	12_1	60	mutatvány	szánalmas	2	no-good	1	716	9	3	3	685	9	3	4	4.45	4.9	3.5	6.1	1.0
508.4571231851769	2.0	FILLER	1.874101730183611	12_1	64	lázadás	széleskörű	1	no-good		945	7	3	5	1556	10	4	1	5.55	5.35	5.0	5.25	0.0
514.4573857341857	2.0	DISTANT	1.3221299615033786	12_1	83	tananyag	akadémiai	2	good	0	1192	8	3	3	833	9	6	2	3.25	5.3	4.35	6.45	0.6859960559999999
520.4566918363635	2.0	REPEAT	1.0261703730466252	12_1	67	osztályzat	közepes	1	no-good	1	1028	10	3	3	4363	7	3	8	4.55	6.45	6.4	6.95	1.0
530.474164280884	2.0	CLOSE	1.3854742006551533	12_1	6	áruházlánc	nyereséges	2	good	1	935	10	4	2	888	10	4	8	1.75	5.95	4.4	6.5	0.9131852979999999
536.4734219715865	2.0	CLOSE	1.1214766883385892	12_1	8	aszfalt	hibátlan	1	no-good	1	977	7	2	4	863	8	3	1	1.95	6.3	6.7	6.65	1.0
548.4729734610337	2.0	FILLER	1.1774823624728017	12_1	65	leépítés	túlzott	1	no-good		2318	8	4	4	2708	7	2	2	5.2	4.75	2.7	5.95	0.0
558.4734242768936	2.0	FILLER	1.2412172233161982	12_1	66	megjegyzés	egyértelmű	1	no-good		3288	10	3	4	11495	10	4	1	2.5	5.65	2.5	6.1	0.0
568.4728487182329	2.0	REPEAT	0.9854570901406988	12_1	61	művészet	vizuális	2	good	1	6299	8	3	1	1406	8	4	1	2.15	4.8	4.3	5.65	1.0
574.4731676192278	2.0	FILLER	1.5294632499244472	12_1	67	meglátás	egyoldalú	1	good		1153	8	3	3	1776	9	4	4	3.4	4.35	2.35	6.3	0.0
582.4764864948629	2.0	FILLER	1.4220591885386966	12_1	68	mellékhatás	közvetett	1	no-good		918	11	4	4	1115	9	3	2	4.65	3.85	2.6	5.25	0.0
592.4899620469369	2.0	REPEAT	0.9048133045980647	12_1	62	nagymama	kedvenc	2	no-good	1	1874	8	3	1	9838	7	2	3	3.25	6.0	5.9	6.8	1.0
600.4903180890105	2.0	REPEAT	0.9605653948092368	12_1	64	novella	tanulságos	2	good	0	925	7	3	1	805	10	4	6	2.45	5.4	3.05	6.5	1.0
606.5066291703988	2.0	REPEAT	1.4321802607737482	12_1	63	napsütés	felhőtlen	2	no-good	1	3340	8	3	2	612	9	3	1	3.0	6.1	6.45	6.6	1.0
612.5059065842906	2.0	DISTANT	1.2321547999199538	12_1	84	tanfolyam	fizikai	2	no-good	0	1871	9	3	2	6220	7	4	2	2.45	4.15	3.9	4.5	0.7106931209999999
618.506165034978	2.0	REPEAT	1.159907203651528	12_1	65	olimpikon	legendás	2	good	1	644	9	4	2	3949	8	3	5	2.15	5.8	5.5	6.6	1.0
626.5055036676167	2.0	FILLER	1.8801500909430613	12_1	69	mellékutca	rendezetlen	1	no-good		573	10	4	0	427	11	4	3	3.45	5.35	5.95	5.85	0.0
634.505888910262	2.0	REPEAT	0.808150187254796	12_1	66	oroszlán	nyugodt	2	no-good	0	1351	8	3	3	2967	7	2	2	2.1	5.9	6.5	6.35	1.0
638.5060874229275	2.0	FILLER	1.2399362402939005	12_1	70	merénylő	gondatlan	1	no-good		1494	8	3	1	869	9	3	1	5.2	4.7	4.5	4.5	0.0
646.5054519262485	2.0	FILLER	1.3363478228820895	12_1	71	mozdulat	harmonikus	1	good		2331	8	3	5	567	10	4	2	2.25	4.7	4.35	4.3	0.0
654.5058151403937	2.0	FILLER	1.55233190907893	12_1	72	mozzanat	színészi	1	no-good		983	8	3	2	942	8	3	7	2.7	5.1	4.65	5.25	0.0
660.5060743595131	2.0	CLOSE	1.0720598417101428	12_1	7	ásványvíz	színvonalas	2	no-good	1	963	9	3	1	1782	11	4	5	1.5	3.65	3.15	3.4	0.7986723179999999
668.5224353892481	2.0	FILLER	1.3835144323857094	12_1	73	munkagép	kicsiny	1	no-good		1398	8	3	1	960	7	2	6	1.5	5.35	5.55	5.45	0.0
674.5217138277258	2.0	REPEAT	1.3915297334860952	12_1	67	osztályzat	közepes	2	good	1	1028	10	3	3	4363	7	3	8	4.55	6.45	6.4	6.95	1.0
682.5250939221041	2.0	FILLER	1.2279952551616589	12_1	74	munkanap	tetszőleges	1	no-good		1952	8	3	2	865	11	4	1	2.4	3.95	3.55	5.65	0.0
690.5384583070881	2.0	CLOSE	1.2308423110152944	12_1	8	aszfalt	szabályos	2	no-good	1	977	7	2	4	978	9	3	5	1.1	5.1	5.6	4.75	0.777173936
696.5387321264934	2.0	FILLER	1.5910644197938382	12_1	75	nagykövet	befolyásos	1	no-good		7228	9	3	2	1470	10	4	5	2.8	5.95	5.05	6.35	0.0
