onset	duration	trial_type	response_time	stim_list	itemno	noun	adjective	order	response	correctness	noun_freq	noun_char	noun_syll	noun_phon	adj_freq	adj_char	adj_syll	adj_phon	arousal	concreteness	imageability	meaningfulness	cosine
24.049060804558398	1.271863736808882	DISTANT	1.271863736808882	12_1	25	fejedelem	gyarmati		new	1	903	9	4	3	862	8	3	3	2.75	4.75	3.35	4.8	0.65641886
34.0655143027725	1.1115392723368132	FOIL	1.1115392723368132	12_1	38	gyűjtemény	sokszínű		new	1	3860	10	3	1	1038	8	3	1	2.15	4.4	5.1	5.65	0.0
42.06588135909624	1.111558227097703	DISTANT	1.111558227097703	12_1	26	fejfájás	sérüléses		new	1	1351	8	3	4	330	9	4	6	4.75	5.5	5.3	5.6	0.629661381
46.06605886784382	0.9674423858596128	CLOSE	0.9674423858596128	12_1	64	novella	beszédes		old	0	925	7	3	1	637	8	3	7	3.3	4.4	3.75	4.9	0.783685148
54.08242860652172	1.2148465445861802	CLOSE	1.2148465445861802	12_1	65	olimpikon	világhírű		new	1	644	9	4	2	2877	9	4	4	2.25	6.3	5.75	6.9	0.8306809070000001
60.081698592199245	1.1268490814509278	TARGET	1.1268490814509278	12_1	1	akadály	lehetetlen		new	0	6030	7	3	2	5822	10	4	6	5.4	4.65	3.6	6.3	0.8418771620000001
66.08198598731178	1.3108700669290556	TARGET	1.3108700669290556	12_1	2	albérlet	szegényes		old	1	547	8	3	1	439	9	3	7	4.5	5.55	6.5	6.05	0.7793105840000001
74.09835239610038	1.1662178572805717	FOIL	1.1662178572805717	12_1	39	gyulladás	fájdalmas		new	1	756	9	3	3	2001	9	3	6	5.0	5.85	4.6	6.55	0.0
82.09871791554906	1.814182410857029	DISTANT	1.814182410857029	12_1	27	folyadék	aránytalan		new	1	1438	8	3	3	727	10	4	2	2.25	3.1	2.9	2.5	0.676598668
90.098070123895	1.2622001402123717	FOIL	1.2622001402123717	12_1	40	gyűlölet	mélységes		new	1	2004	8	3	1	415	9	3	6	6.2	5.7	3.2	6.35	0.0
100.098542199823	1.214392654979747	TARGET	1.214392654979747	12_1	3	alkatrész	műszaki		new	0	2625	9	3	2	11955	7	3	1	1.6	5.9	5.6	6.45	0.8308419585
108.10190077799052	1.0747068480231974	TARGET	1.0747068480231974	12_1	4	alkohol	legális		old	1	3138	7	3	2	1848	7	3	3	2.75	5.45	5.2	5.3	0.75390619
118.1143222918472	1.3255215824246989	FOIL	1.3255215824246989	12_1	41	hadjárat	szerencsétlen		new	1	1413	8	3	4	2074	13	4	3	4.7	5.2	4.25	5.85	0.0
122.1145041550626	1.4456430055797682	DISTANT	1.4456430055797682	12_1	28	gorilla	önzetlen		new	1	659	7	3	2	338	8	3	1	2.25	4.35	3.65	4.75	0.626140475
130.1148689060792	1.3255141542067577	CLOSE	1.3255141542067577	12_1	66	oroszlán	csendes		old	0	1351	8	3	3	2305	7	2	7	2.15	5.45	5.7	6.3	0.851599276
136.11416706774617	1.0855341130554734	FOIL	1.0855341130554734	12_1	42	hátrány	mentális		new	1	7114	7	2	4	861	8	3	3	4.9	3.75	3.25	5.85	0.0
140.1143251094436	1.4936828146710468	CLOSE	1.4936828146710468	12_1	67	osztályzat	átlagos		new	1	1028	10	3	3	10804	7	3	7	3.35	5.85	5.35	6.5	0.816440403
150.11478053592143	1.0455270229540474	FOIL	1.0455270229540474	12_1	43	havazás	folyamatos		new	1	3637	7	3	4	10275	10	4	6	3.85	6.45	6.8	6.9	0.0
154.11399903638085	1.1575365782009612	DISTANT	1.1575365782009612	12_1	29	hangszer	vezérkari		new	1	1828	8	2	3	996	9	4	6	1.6	4.65	4.05	4.85	0.6304627660000001
164.11444396089792	1.1812815106859489	CLOSE	1.1812815106859489	12_1	68	ösztöndíj	képzési		new	1	2344	9	3	1	2239	7	3	7	3.6	5.6	4.35	6.55	0.819112897
168.11762144428576	1.0020594088200596	TARGET	1.0020594088200596	12_1	5	állatkert	egzotikus		new	0	2056	9	3	3	643	9	4	1	2.95	5.45	5.6	6.45	0.8002586359999999
180.1311738399745	1.3009339316522528	CLOSE	1.3009339316522528	12_1	69	pénztárca	titokzatos		old	0	1902	9	3	3	1438	10	4	2	2.65	3.3	3.3	3.25	0.799133718
188.1345347234528	1.0016149965922525	DISTANT	1.0016149965922525	12_1	30	háziorvos	részmunkaidős		new	1	2011	9	4	4	365	13	5	1	2.05	5.7	4.75	5.75	0.6547772288
194.14682278556572	1.044219144663657	DISTANT	1.044219144663657	12_1	31	helyezés	időszaki		new	1	5834	8	3	4	796	8	4	1	2.25	2.55	1.65	2.85	0.617949784
202.147203929886	1.0123428772240004	FOIL	1.0123428772240004	12_1	44	házastárs	eszméletlen		new	1	909	9	3	3	520	11	4	3	5.8	5.55	5.05	5.4	0.0
210.14755254374177	1.2602590705537295	TARGET	1.2602590705537295	12_1	6	áruházlánc	veszteséges		old	1	935	10	4	2	1234	11	4	8	2.7	4.85	4.1	5.9	0.9131852979999999
214.1467287802116	0.9404136696575732	FOIL	0.9404136696575732	12_1	45	hazugság	kisebbik		new	1	3451	8	3	4	1351	8	3	4	4.65	3.05	2.4	5.7	0.0
224.1471911226181	1.0041416145832045	FOIL	1.0041416145832045	12_1	46	hercegnő	szigorú		new	1	1207	8	3	2	8605	7	3	6	2.45	5.35	5.4	6.4	0.0
232.16355266464237	1.26768754260047	TARGET	1.26768754260047	12_1	7	ásványvíz	minőségi		old	1	963	9	3	1	4832	8	4	2	1.85	6.05	5.25	6.4	0.7986723179999999
242.16302731047472	1.155743304425414	FOIL	1.155743304425414	12_1	47	hetilap	közérdekű		new	1	3156	7	3	1	1687	9	4	4	2.55	6.0	6.0	5.75	0.0
248.1672706147729	1.1362293812562712	TARGET	1.1362293812562712	12_1	8	aszfalt	hibátlan		old	1	977	7	2	4	863	8	3	1	1.95	6.3	6.7	6.65	0.777173936
258.17974054010483	1.1628733671059308	TARGET	1.1628733671059308	12_1	9	baktérium	növényi		old	1	1448	9	4	1	968	7	3	7	2.25	4.75	2.95	5.85	0.750643611
268.1831869761336	1.2395707208452222	TARGET	1.2395707208452222	12_1	10	barátnő	középkorú		new	0	3479	7	3	1	1253	9	4	8	1.95	5.9	5.5	6.1	0.8318079709999999
272.1963766699737	1.2821676968378597	CLOSE	1.2821676968378597	12_1	70	pisztoly	jogszerűtlen		new	1	1679	8	2	3	607	12	4	1	4.2	3.35	2.85	3.45	0.8161163929999999
284.1969148314056	1.314002468730905	FOIL	1.314002468730905	12_1	48	hirdetés	releváns		new	1	4687	8	3	4	763	8	3	1	2.15	5.15	4.55	6.3	0.0
290.213201578983	0.9375376693787985	TARGET	0.9375376693787985	12_1	11	barlang	lakatlan		old	1	1015	7	2	2	471	8	3	2	2.9	6.2	6.1	6.3	0.803201675
302.21273488210863	1.097716899421357	DISTANT	1.097716899421357	12_1	32	horgász	járatos		new	1	707	7	2	2	317	7	3	6	1.45	4.9	3.05	5.0	0.6454380751
306.21291725761694	2.0	CLOSE	0.0	12_1	71	professzor	jogtudományi			0	6091	10	3	5	382	12	5	3	1.8	6.2	5.45	6.55	0.774288118
316.2293769033204	1.168922240154643	FOIL	1.168922240154643	12_1	49	irodaház	szemközti		new	1	942	8	4	3	638	9	3	4	1.45	6.65	6.3	6.6	0.0
322.2296504665828	1.2730458477162756	FOIL	1.2730458477162756	12_1	50	játszma	belpolitikai		new	1	1655	7	2	1	2408	12	6	2	5.15	3.95	2.85	6.35	0.0
330.22902572801104	1.12088627324556	CLOSE	1.12088627324556	12_1	72	rémálom	sajnálatos		old	0	769	7	3	1	2647	10	4	3	5.4	3.75	4.3	4.45	0.833719671
336.2292841786948	1.313128756853985	FOIL	1.313128756853985	12_1	1	ábrázolás	szokatlan		new	1	839	9	4	4	3495	9	3	1	2.55	4.45	3.45	6.05	0.0
344.2296635299972	0.9048291856161086	FOIL	0.9048291856161086	12_1	2	adottság	pozitív		new	1	1928	8	3	3	10499	7	3	1	2.15	3.8	3.0	6.0	0.0
350.245922357728	1.2482537929354294	TARGET	1.2482537929354294	12_1	12	benzinkút	hajnali		old	1	1490	9	3	1	3888	7	3	8	2.85	5.25	6.5	4.8	0.792105377
354.24510576626926	1.016256266273558	CLOSE	1.016256266273558	12_1	73	repülőjegy	hatályos		old	0	590	10	4	0	4539	8	3	2	2.8	3.75	3.4	3.7	0.8210387229999999
360.24541083541044	1.3122837332557538	FOIL	1.3122837332557538	12_1	3	alapanyag	folyékony		new	1	2168	9	4	4	612	9	3	1	1.75	5.6	5.6	6.45	0.0
368.24874277446	0.980768605182675	CLOSE	0.980768605182675	12_1	74	sütemény	jubileumi		new	1	1032	8	3	3	1377	9	5	4	1.55	4.35	3.15	3.8	0.8020977970000001
374.2620226314684	1.047547753820254	FOIL	1.047547753820254	12_1	4	államférfi	diszkrét		new	1	599	10	4	4	535	8	2	1	1.8	3.8	3.65	4.7	0.0
380.2622890226594	1.015581579355057	CLOSE	1.015581579355057	12_1	75	szabadidő	örömteli		new	1	1588	9	4	1	1077	8	4	5	3.35	4.4	6.0	6.4	0.817380428
390.2617780126348	0.975756608615484	TARGET	0.975756608615484	12_1	88	törmelék	építkezési		new	0	730	8	3	1	395	10	5	7	1.9	6.55	6.8	6.4	0.657350659
396.2620364633185	1.5196288043662207	TARGET	1.5196288043662207	12_1	89	tudomány	mérnöki		old	1	3986	8	3	5	877	7	3	6	1.7	4.75	3.4	6.0	0.662602782
404.26140250351455	1.39134556495992	TARGET	1.39134556495992	12_1	90	tűzijáték	nagyszabású		old	1	1585	9	4	1	3070	11	4	1	2.9	6.2	6.9	6.6	0.664982438
408.264582548356	0.9962881973588082	DISTANT	0.9962881973588082	12_1	33	iránytű	funkcionális		new	1	794	7	3	2	570	12	5	1	1.75	4.9	4.85	4.9	0.6793020959999999
418.2780235208047	1.2790716676827287	TARGET	1.2790716676827287	12_1	91	újságcikk	botrányos		old	1	503	9	3	0	1508	9	3	4	3.75	5.45	5.65	6.55	0.626544654
430.28159751723433	1.0273199534967716	FOIL	1.0273199534967716	12_1	5	áramlat	belföldi		new	1	1372	7	3	2	3239	8	3	4	1.8	3.05	2.25	2.8	0.0
436.2948630301034	1.038435125930846	DISTANT	1.038435125930846	12_1	34	kánikula	hegyvidéki		new	1	1200	8	4	1	354	10	4	2	3.9	4.9	4.35	4.45	0.632834494
444.29522880569857	0.8620037279397366	FOIL	0.8620037279397366	12_1	6	asszisztens	tárgyalási		new	1	1083	11	3	4	2106	10	4	6	2.05	4.45	4.4	5.25	0.0
454.31066591906347	1.0696359380162903	FOIL	1.0696359380162903	12_1	7	bábszínház	virtuális		new	1	636	10	3	2	5945	9	4	1	1.85	4.6	4.95	4.6	0.0
460.3109433245045	1.4135915346996626	TARGET	1.4135915346996626	12_1	92	útlezárás	helyszíni		old	1	1291	9	4	3	4087	9	3	7	3.75	6.6	6.45	6.5	0.620973349
466.3112120210062	1.0537526194057136	DISTANT	1.0537526194057136	12_1	35	kapitány	tüzérségi		new	1	6280	8	3	5	319	9	4	5	2.8	5.9	5.55	6.15	0.616324306
476.3276734597275	1.0771440712705953	FOIL	1.0771440712705953	12_1	8	bankrablás	tavalyi		new	1	535	10	3	2	16956	7	3	7	3.8	5.35	4.15	6.15	0.0
484.3280384668869	1.0446927574630536	DISTANT	1.0446927574630536	12_1	36	kastély	speciális		new	1	2771	7	2	4	9094	9	4	1	2.5	4.05	4.8	4.3	0.7096855040000001
492.32741347217234	1.1812546154214942	FOIL	1.1812546154214942	12_1	9	becslés	szakszerű		new	1	7246	7	2	4	968	9	3	2	2.1	5.25	2.4	6.0	0.0
502.3268584051402	0.99695212617371	TARGET	0.99695212617371	12_1	93	útmutatás	erkölcsi		old	1	703	9	4	2	4377	8	3	7	3.2	4.1	2.7	6.3	0.6710424423
512.327325358161	1.348923023961106	TARGET	1.348923023961106	12_1	94	vacsora	zártkörű		new	0	2517	7	3	1	562	8	3	1	2.45	5.85	5.4	6.9	0.6062234639999999
518.326598417585	1.07696015889087	DISTANT	1.07696015889087	12_1	37	képregény	lövöldözős		new	1	1156	9	3	5	385	10	4	2	2.75	6.0	6.5	5.85	0.673104167
528.3270433421021	1.3410037773755903	TARGET	1.3410037773755903	12_1	95	végállomás	ideiglenes		old	1	893	10	4	4	4073	10	5	1	2.95	4.15	3.65	4.7	0.709046066
534.3433154893937	1.092304803776642	FOIL	1.092304803776642	12_1	10	berendezés	egyszerű		new	1	6368	10	4	5	22554	8	3	3	1.5	5.45	5.7	6.15	0.0
544.3437847477217	1.1320626644301228	TARGET	1.1320626644301228	12_1	96	ventilátor	masszív		new	0	1165	10	4	3	982	7	2	2	1.6	4.5	5.6	5.5	0.7033834459999999
554.3432248139288	1.2923412788768474	TARGET	1.2923412788768474	12_1	97	világítás	hangulatos		old	1	1393	9	4	5	1112	10	4	5	2.95	5.9	6.4	6.85	0.624678135
566.3437757826323	1.1721220081890351	TARGET	1.1721220081890351	12_1	98	zarándok	keresztény		new	0	1047	8	3	2	7533	10	3	5	2.05	5.9	5.65	5.75	0.736171305
574.360137580803	1.3556745037749351	FOIL	1.3556745037749351	12_1	11	borvidék	csapadékos		new	1	827	8	3	2	840	10	4	4	2.55	5.5	6.15	5.65	0.0
582.3595018279811	1.139688112267322	FOIL	1.139688112267322	12_1	12	bűntett	embertelen		new	1	7349	7	2	1	964	10	4	1	6.6	5.6	4.3	6.1	0.0
592.3599590474769	1.3476694484888867	TARGET	1.3476694484888867	12_1	99	zeneszerző	nagyszerű		new	0	2295	10	4	1	4154	9	3	1	2.35	5.5	5.55	6.65	0.714982808
598.3592715532905	1.0036769668695342	TARGET	1.0036769668695342	12_1	100	zöldség	rendszeres		new	0	2637	7	2	3	5423	10	3	8	1.9	2.0	2.65	2.4	0.7183503509999999
