onset	duration	trial_type	response_time	stim_list	itemno	noun	adjective	jitter	response	counterbalance	noun_freq	noun_char	noun_syll	noun_phon	adj_freq	adj_char	adj_syll	adj_phon	arousal	concreteness	imageability	meaningfulness	cosine
24.033140173603897	2.0	BASELINE	1.1494040890684118	StimuliTable-4960-Mapping-Run8.xlsx	75	szabadidő	kellemes	6	4	2	1588	9	4	1	5875	8	3	8	3.6	4.9	5.65	6.15	1.0
34.03259714401793	2.0	DISTANT	1.4211091994075105	StimuliTable-4960-Mapping-Run8.xlsx	15	csecsemő	tevékeny	8	2	2	2039	8	3	2	403	8	3	2	2.4	4.65	4.65	4.15	0.655481756
42.049007651847205	2.0	BASELINE	1.4127598633494929	StimuliTable-4960-Mapping-Run8.xlsx	56	monitor	kijelzős	6	3	2	3644	7	3	3	489	8	3	2	1.25	6.0	6.15	5.15	1.0
54.0495960192784	2.0	BASELINE	1.46847341832472	StimuliTable-4960-Mapping-Run8.xlsx	13	bölcsőde	szomszédos	10	4	2	1219	8	3	1	5450	10	3	7	1.7	6.1	5.1	6.55	1.0
64.0660728689254	2.0	CLOSE	1.1401126479031518	StimuliTable-4960-Mapping-Run8.xlsx	4	alkohol	biztonságos	8	2	2	3138	7	3	2	8412	11	4	6	3.5	2.55	2.7	3.1	0.75390619
72.06542763707694	2.0	CLOSE	1.1078121209866367	StimuliTable-4960-Mapping-Run8.xlsx	57	műalkotás	reneszánsz	6	4	2	784	9	4	1	1591	10	3	3	2.25	6.25	6.1	6.6	0.743859231
82.06592942716088	2.0	DISTANT	1.3081044860591646	StimuliTable-4960-Mapping-Run8.xlsx	42	kirándulás	mielőbbi	8	2	2	1896	10	4	4	1499	8	4	1	2.05	3.85	3.35	5.25	0.63326329
94.0655093476671	2.0	CLOSE	1.3957297382730758	StimuliTable-4960-Mapping-Run8.xlsx	27	folyadék	optimális	10	1	2	1438	8	3	3	1679	9	4	2	1.8	3.5	3.45	3.25	0.841039181
102.08189705849507	2.0	BASELINE	1.3074413239810383	StimuliTable-4960-Mapping-Run8.xlsx	31	helyezés	végleges	6	2	2	5834	8	3	4	7802	8	3	3	2.95	4.45	3.65	5.2	1.0
114.0824710817542	2.0	CLOSE	1.2351584506541258	StimuliTable-4960-Mapping-Run8.xlsx	52	matrica	ingyenes	10	3	2	1479	7	3	2	13952	8	3	1	2.65	6.2	4.8	6.5	0.863539815
122.09887185602564	2.0	DISTANT	1.2027457317744847	StimuliTable-4960-Mapping-Run8.xlsx	33	iránytű	funkcionális	6	2	2	794	7	3	2	570	12	5	1	1.75	4.9	4.85	4.9	0.6793020959999999
132.09834188988316	2.0	DISTANT	1.2745398784754798	StimuliTable-4960-Mapping-Run8.xlsx	47	kommentár	szakorvosi	8	3	2	2449	9	3	2	348	10	4	6	2.85	5.15	3.5	5.7	0.625912845
142.09878732783545	2.0	BASELINE	1.042740783042973	StimuliTable-4960-Mapping-Run8.xlsx	1	akadály	lehetetlen	8	4	2	6030	7	3	2	5822	10	4	6	5.4	4.65	3.6	6.3	1.0
154.09838620315713	2.0	BASELINE	1.2904885550233305	StimuliTable-4960-Mapping-Run8.xlsx	78	szemüveg	kényelmes	10	3	2	1594	8	3	4	3437	9	3	8	2.15	6.1	6.05	6.7	1.0
164.11488943584845	2.0	DISTANT	1.250062051374698	StimuliTable-4960-Mapping-Run8.xlsx	73	repülőjegy	azonnali	8	2	2	590	10	4	0	6934	8	4	2	2.4	6.0	5.7	6.2	0.665511608
172.11526417748246	2.0	CLOSE	1.1698716938844882	StimuliTable-4960-Mapping-Run8.xlsx	54	menetrend	változatlan	6	3	2	4833	9	3	2	3262	11	4	2	1.8	6.25	4.95	7.0	0.812076867
184.11480951828707	2.0	CLOSE	1.2101181268662913	StimuliTable-4960-Mapping-Run8.xlsx	6	áruházlánc	nyereséges	10	3	2	935	10	4	2	888	10	4	8	1.75	5.95	4.4	6.5	0.9131852979999999
196.11839812419203	2.0	BASELINE	1.206681927840691	StimuliTable-4960-Mapping-Run8.xlsx	16	csengőhang	többféle	10	3	2	2279	10	3	1	2956	8	3	1	2.25	4.55	3.55	5.8	1.0
208.13096900300297	2.0	CLOSE	1.0813430146226892	StimuliTable-4960-Mapping-Run8.xlsx	75	szabadidő	örömteli	10	4	2	1588	9	4	1	1077	8	4	5	3.35	4.4	6.0	6.4	0.817380428
218.13147924588705	2.0	DISTANT	1.3294527209509397	StimuliTable-4960-Mapping-Run8.xlsx	12	benzinkút	csöndes	8	2	2	1490	9	3	1	328	7	2	6	3.0	5.35	5.6	6.25	0.6801339390000001
230.13102433053427	2.0	DISTANT	1.5374381759611424	StimuliTable-4960-Mapping-Run8.xlsx	71	professzor	alkotmányügyi	10	2	2	6091	10	3	5	1277	13	5	2	2.45	5.65	3.5	3.95	0.640873194
240.13056377998143	2.0	CLOSE	1.3854213973681908	StimuliTable-4960-Mapping-Run8.xlsx	55	mikrofon	távközlési	8	2	2	1847	8	3	1	3781	10	4	8	1.75	3.85	3.55	4.2	0.7811700109999999
248.130929044215	2.0	BASELINE	1.20144399763376	StimuliTable-4960-Mapping-Run8.xlsx	40	kesztyű	férfias	6	2	2	891	7	2	1	506	7	3	6	1.7	5.45	4.85	5.4	1.0
256.1343078665232	2.0	BASELINE	1.1420447574200807	StimuliTable-4960-Mapping-Run8.xlsx	89	tudomány	mérnöki	6	4	2	3986	8	3	5	877	7	3	6	1.7	4.75	3.4	6.0	1.0
268.1468864297203	2.0	CLOSE	1.1847891264915231	StimuliTable-4960-Mapping-Run8.xlsx	92	útlezárás	félpályás	10	1	2	1291	9	4	3	1206	9	3	2	2.95	6.3	6.3	6.3	0.78665024
280.1474801762088	2.0	BASELINE	0.9529003799398196	StimuliTable-4960-Mapping-Run8.xlsx	88	törmelék	építkezési	10	4	2	730	8	3	1	395	10	5	7	1.9	6.55	6.8	6.4	1.0
290.14695046622364	2.0	DISTANT	0.968767602025764	StimuliTable-4960-Mapping-Run8.xlsx	56	monitor	digitális	8	4	2	3644	7	3	3	11798	9	4	1	1.65	6.1	6.45	5.5	0.7256274220000001
300.147405893862	2.0	DISTANT	1.3047640856530052	StimuliTable-4960-Mapping-Run8.xlsx	39	készpénz	méltánytalan	8	2	2	3600	8	2	3	351	12	4	1	4.0	3.55	2.9	2.5	0.6948193309999999
308.146812147359	2.0	BASELINE	1.168820214428706	StimuliTable-4960-Mapping-Run8.xlsx	29	hangszer	autentikus	6	4	2	1828	8	2	3	526	10	5	1	2.0	4.6	3.7	4.7	1.0
320.1463905309938	2.0	CLOSE	1.072792603939888	StimuliTable-4960-Mapping-Run8.xlsx	67	osztályzat	átlagos	10	4	2	1028	10	3	3	10804	7	3	7	3.35	5.85	5.35	6.5	0.816440403
328.14674324408406	2.0	DISTANT	1.480814021851984	StimuliTable-4960-Mapping-Run8.xlsx	30	háziorvos	részmunkaidős	6	3	2	2011	9	4	4	365	13	5	1	2.05	5.7	4.75	5.75	0.6547772288
340.1463244453189	2.0	DISTANT	1.4727940895827487	StimuliTable-4960-Mapping-Run8.xlsx	93	útmutatás	lelkiismereti	10	4	2	703	9	4	2	476	13	6	6	3.5	3.7	2.5	5.05	0.6710424423
350.14683878654614	2.0	BASELINE	1.3128196222241968	StimuliTable-4960-Mapping-Run8.xlsx	90	tűzijáték	nagyszabású	8	4	2	1585	9	4	1	3070	11	4	1	2.9	6.2	6.9	6.6	1.0
362.146416401738	2.0	CLOSE	1.3367864379979435	StimuliTable-4960-Mapping-Run8.xlsx	38	kerékpár	intelligens	10	2	2	3466	8	3	3	2053	11	4	1	1.9	3.15	2.8	3.4	0.787231982
370.1468139403878	2.0	DISTANT	1.1368649723590352	StimuliTable-4960-Mapping-Run8.xlsx	7	ásványvíz	nagysikerű	6	1	2	963	9	3	1	627	10	4	1	1.35	4.75	4.35	5.75	0.66301918
382.14635390210606	2.0	DISTANT	1.3768474212265571	StimuliTable-4960-Mapping-Run8.xlsx	5	állatkert	alternatív	10	3	2	2056	9	3	3	4055	10	4	1	2.15	2.55	2.75	2.7	0.67844069
392.14687157324806	2.0	CLOSE	1.1366113877884343	StimuliTable-4960-Mapping-Run8.xlsx	43	kolbász	méternyi	8	4	2	867	7	2	2	324	8	3	1	2.75	5.95	6.65	5.85	0.762132525
404.1464012891229	2.0	CLOSE	1.2568540195497917	StimuliTable-4960-Mapping-Run8.xlsx	16	csengőhang	változatos	10	2	2	2279	10	3	1	2172	10	4	6	2.55	4.0	4.4	5.35	0.843068182
414.1459179415688	2.0	BASELINE	1.336741612438345	StimuliTable-4960-Mapping-Run8.xlsx	47	kommentár	terjedelmes	8	3	2	2449	9	3	2	699	11	4	5	2.2	4.4	4.0	5.3	1.0
422.1622687673662	2.0	BASELINE	1.0481505872303387	StimuliTable-4960-Mapping-Run8.xlsx	3	alkatrész	műszaki	6	4	2	2625	9	3	2	11955	7	3	1	1.6	5.9	5.6	6.45	1.0
430.1626545232866	2.0	DISTANT	1.3278943284822162	StimuliTable-4960-Mapping-Run8.xlsx	27	folyadék	aránytalan	6	2	2	1438	8	3	3	727	10	4	2	2.25	3.1	2.9	2.5	0.676598668
440.1621353152877	2.0	DISTANT	1.1921843185846228	StimuliTable-4960-Mapping-Run8.xlsx	54	menetrend	naprakész	8	4	2	4833	9	3	2	816	9	3	1	2.3	5.35	4.4	6.1	0.7033958440000001
450.1626166136848	2.0	CLOSE	1.2719809796253685	StimuliTable-4960-Mapping-Run8.xlsx	22	díszterem	tekintélyes	8	3	2	1123	9	3	1	2353	11	4	6	3.0	4.6	5.55	5.35	0.816129208
460.1621314731019	2.0	DISTANT	1.3282260375999613	StimuliTable-4960-Mapping-Run8.xlsx	99	zeneszerző	rendkívüli	8	4	2	2295	10	4	1	13622	10	4	2	3.3	5.4	4.8	6.05	0.714982808
468.1625302924658	2.0	BASELINE	1.3042033819947392	StimuliTable-4960-Mapping-Run8.xlsx	58	műanyag	felesleges	6	3	2	3590	7	3	1	4304	10	4	7	3.55	4.95	5.15	6.3	1.0
480.1620974056714	2.0	CLOSE	1.0482381891779369	StimuliTable-4960-Mapping-Run8.xlsx	28	gorilla	problémás	10	1	2	659	7	3	2	1593	9	3	8	3.3	4.7	4.55	4.65	0.775599658
490.1615746116149	2.0	BASELINE	1.3042100417951588	StimuliTable-4960-Mapping-Run8.xlsx	6	áruházlánc	veszteséges	8	2	2	935	10	4	2	1234	11	4	8	2.7	4.85	4.1	5.9	1.0
500.1620717910701	2.0	CLOSE	1.0001885234814836	StimuliTable-4960-Mapping-Run8.xlsx	63	napsütés	zavartalan	8	4	2	3340	8	3	2	1197	10	4	1	2.75	5.95	6.1	5.75	0.824103177
510.1625520648813	2.0	DISTANT	1.4799572133633774	StimuliTable-4960-Mapping-Run8.xlsx	52	matrica	kedvezményes	8	1	2	1479	7	3	2	3115	12	4	6	1.9	5.2	5.8	6.1	0.701929092
520.1619969964231	2.0	BASELINE	1.144200482420274	StimuliTable-4960-Mapping-Run8.xlsx	7	ásványvíz	minőségi	8	3	2	963	9	3	1	4832	8	4	2	1.85	6.05	5.25	6.4	1.0
528.1614206678496	2.0	CLOSE	0.8642013635690091	StimuliTable-4960-Mapping-Run8.xlsx	17	csillagász	türelmes	6	4	2	606	10	3	4	495	8	3	7	2.2	4.5	4.55	5.3	0.7566338779999999
540.1619806030794	2.0	CLOSE	1.408198414806975	StimuliTable-4960-Mapping-Run8.xlsx	91	újságcikk	döbbenetes	10	3	2	503	9	3	0	999	10	4	6	4.35	4.9	4.45	6.6	0.7505655290000001
552.1615582182712	2.0	BASELINE	1.071894299806445	StimuliTable-4960-Mapping-Run8.xlsx	33	iránytű	hasznos	10	4	2	794	7	3	2	9089	7	2	7	1.75	5.45	6.15	6.3	1.0
560.1619122120901	2.0	DISTANT	1.128319172290503	StimuliTable-4960-Mapping-Run8.xlsx	78	szemüveg	elsődleges	6	2	2	1594	8	3	4	6398	10	4	1	2.3	4.25	3.75	3.75	0.657139182
568.161307707458	2.0	CLOSE	1.1761416364606705	StimuliTable-4960-Mapping-Run8.xlsx	1	akadály	reménytelen	6	4	2	6030	7	3	2	1273	11	4	4	4.8	3.9	2.9	4.5	0.8418771620000001
576.1646929334092	2.0	BASELINE	1.204727277479833	StimuliTable-4960-Mapping-Run8.xlsx	69	pénztárca	ismeretlen	6	1	2	1902	9	3	3	17883	10	4	7	3.55	4.9	4.9	6.15	1.0
588.1782604764303	2.0	DISTANT	1.3515576112113197	StimuliTable-4960-Mapping-Run8.xlsx	53	mellény	kamionos	10	3	2	909	7	2	5	543	8	4	7	1.4	6.25	5.7	6.1	0.629222572
596.1816772083548	2.0	CLOSE	1.0681099983339664	StimuliTable-4960-Mapping-Run8.xlsx	42	kirándulás	tegnapi	6	4	2	1896	10	4	4	6241	7	3	8	2.15	6.7	5.15	6.1	0.839792311
608.1942606383236	2.0	BASELINE	1.046910840421333	StimuliTable-4960-Mapping-Run8.xlsx	15	csecsemő	egészséges	10	4	2	2039	8	3	2	7076	10	4	8	2.6	6.5	6.55	6.6	1.0
620.1938123827567	2.0	DISTANT	1.2308928507845849	StimuliTable-4960-Mapping-Run8.xlsx	14	boríték	lakossági	10	2	2	1364	7	3	3	6638	9	4	7	1.5	3.15	3.85	3.5	0.602748156
628.1941976263915	2.0	BASELINE	0.9428517711057792	StimuliTable-4960-Mapping-Run8.xlsx	57	műalkotás	korabeli	6	4	2	784	9	4	1	2056	8	4	3	2.0	5.45	4.75	6.2	1.0
638.1977242449648	2.0	DISTANT	1.219475397563656	StimuliTable-4960-Mapping-Run8.xlsx	88	törmelék	életveszélyes	8	1	2	730	8	3	1	3907	13	5	3	4.75	5.8	6.2	6.4	0.657350659
646.211099422304	2.0	CLOSE	0.9662842662510228	StimuliTable-4960-Mapping-Run8.xlsx	94	vacsora	meghívásos	6	4	2	2517	7	3	1	352	10	4	5	2.1	5.8	4.1	6.45	0.7889098529999999
