onset	duration	trial_type	response_time	stim_list	itemno	noun	adjective	jitter	response	counterbalance	noun_freq	noun_char	noun_syll	noun_phon	adj_freq	adj_char	adj_syll	adj_phon	arousal	concreteness	imageability	meaningfulness	cosine
28.036329447844764	2.0	BASELINE	1.620265556834056	StimuliTable-4960-Mapping-Run6.xlsx	73	repülőjegy	érvényes	10	4	2	590	10	4	0	10878	8	3	6	2.8	6.75	6.4	6.9	1.0
40.04890775489912	2.0	BASELINE	1.4069955530576408	StimuliTable-4960-Mapping-Run6.xlsx	12	benzinkút	hajnali	10	1	2	1490	9	3	1	3888	7	3	8	2.85	5.25	6.5	4.8	1.0
50.0524364226294	2.0	DISTANT	1.2835557065118337	StimuliTable-4960-Mapping-Run6.xlsx	21	díszlet	kulturális	8	4	2	1420	7	2	3	24926	10	4	1	1.65	4.6	4.1	4.5	0.683287978
62.06601472377952	2.0	BASELINE	1.7023598477680937	StimuliTable-4960-Mapping-Run6.xlsx	91	újságcikk	botrányos	10	4	2	503	9	3	0	1508	9	3	4	3.75	5.45	5.65	6.55	1.0
74.06558158084226	2.0	BASELINE	1.5503768804628637	StimuliTable-4960-Mapping-Run6.xlsx	5	állatkert	egzotikus	10	1	2	2056	9	3	3	643	9	4	1	2.95	5.45	5.6	6.45	1.0
82.06596708061988	2.0	CLOSE	1.3344378350157058	StimuliTable-4960-Mapping-Run6.xlsx	78	szemüveg	ideális	6	2	2	1594	8	3	4	3414	7	4	1	1.9	5.3	5.0	5.5	0.84095335
92.06545760616429	2.0	CLOSE	1.5263462843286106	StimuliTable-4960-Mapping-Run6.xlsx	15	csecsemő	normális	8	4	2	2039	8	3	2	4470	8	3	4	2.95	4.65	4.75	4.45	0.7993261220000001
104.06602599420876	2.0	DISTANT	1.1501497301651398	StimuliTable-4960-Mapping-Run6.xlsx	67	osztályzat	alapfokú	10	4	2	1028	10	3	3	821	8	4	4	2.6	4.3	2.9	3.95	0.713177145
116.06557825094204	2.0	BASELINE	1.3983580526983133	StimuliTable-4960-Mapping-Run6.xlsx	40	kesztyű	férfias	10	2	2	891	7	2	1	506	7	3	6	1.7	5.45	4.85	5.4	1.0
128.06919247146288	2.0	BASELINE	0.0	StimuliTable-4960-Mapping-Run6.xlsx	30	háziorvos	elégedetlen	10	0	2	2011	9	4	4	2000	11	5	3	4.1	5.6	5.2	5.6	1.0
136.0815415278048	2.0	CLOSE	1.1497091589990305	StimuliTable-4960-Mapping-Run6.xlsx	94	vacsora	meghívásos	6	4	2	2517	7	3	1	352	10	4	5	2.1	5.8	4.1	6.45	0.7889098529999999
144.0819162694388	2.0	DISTANT	1.1974573408078868	StimuliTable-4960-Mapping-Run6.xlsx	93	útmutatás	lelkiismereti	6	2	2	703	9	4	2	476	13	6	6	3.5	3.7	2.5	5.05	0.6710424423
152.0813660677668	2.0	BASELINE	1.1337212921207538	StimuliTable-4960-Mapping-Run6.xlsx	42	kirándulás	hétvégi	6	4	2	1896	10	4	4	4177	7	3	5	2.95	6.05	6.3	6.9	1.0
162.0817948562326	2.0	DISTANT	1.7494343655271225	StimuliTable-4960-Mapping-Run6.xlsx	88	törmelék	életveszélyes	8	1	2	730	8	3	1	3907	13	5	3	4.75	5.8	6.2	6.4	0.657350659
174.08140756342618	2.0	DISTANT	1.045724372015684	StimuliTable-4960-Mapping-Run6.xlsx	3	alkatrész	karbantartási	10	4	2	2625	9	3	2	503	13	5	4	1.55	4.7	4.65	4.65	0.6785420179
186.08193752956868	2.0	CLOSE	1.3094592424313305	StimuliTable-4960-Mapping-Run6.xlsx	71	professzor	jogtudományi	10	4	2	6091	10	3	5	382	12	5	3	1.8	6.2	5.45	6.55	0.774288118
194.0983554656268	2.0	DISTANT	1.2290829229168594	StimuliTable-4960-Mapping-Run6.xlsx	90	tűzijáték	verhetetlen	6	2	2	1585	9	4	1	357	11	4	2	2.4	3.2	4.55	3.15	0.664982438
204.09783651377077	2.0	CLOSE	1.4448150023672497	StimuliTable-4960-Mapping-Run6.xlsx	52	matrica	ingyenes	8	3	2	1479	7	3	2	13952	8	3	1	2.65	6.2	4.8	6.5	0.863539815
214.0983331809257	2.0	CLOSE	1.1650661381863756	StimuliTable-4960-Mapping-Run6.xlsx	56	monitor	érintős	8	4	2	3644	7	3	3	784	7	3	3	1.5	6.55	6.45	6.45	0.8547784690000001
224.09779937259736	2.0	BASELINE	1.3967363921838114	StimuliTable-4960-Mapping-Run6.xlsx	16	csengőhang	többféle	8	3	2	2279	10	3	1	2956	8	3	1	2.25	4.55	3.55	5.8	1.0
234.097248914768	2.0	CLOSE	1.405013238909305	StimuliTable-4960-Mapping-Run6.xlsx	27	folyadék	optimális	8	2	2	1438	8	3	3	1679	9	4	2	1.8	3.5	3.45	3.25	0.841039181
244.09776197526665	2.0	CLOSE	1.1968126212304924	StimuliTable-4960-Mapping-Run6.xlsx	31	helyezés	jogerős	8	2	2	5834	8	3	4	4058	7	3	1	2.55	2.65	1.5	3.3	0.78364414
254.09724609716795	2.0	BASELINE	1.2290147880848965	StimuliTable-4960-Mapping-Run6.xlsx	92	útlezárás	helyszíni	8	4	2	1291	9	4	3	4087	9	3	7	3.75	6.6	6.45	6.5	1.0
266.0978398436709	2.0	BASELINE	1.228777340700617	StimuliTable-4960-Mapping-Run6.xlsx	47	kommentár	terjedelmes	10	3	2	2449	9	3	2	699	11	4	5	2.2	4.4	4.0	5.3	1.0
274.1142119295837	2.0	DISTANT	1.2044163161917822	StimuliTable-4960-Mapping-Run6.xlsx	32	horgász	járatos	6	1	2	707	7	2	2	317	7	3	6	1.45	4.9	3.05	5.0	0.6454380751
284.11370219898527	2.0	CLOSE	1.2121552562603028	StimuliTable-4960-Mapping-Run6.xlsx	50	levéltár	néprajzi	8	4	2	1665	8	3	3	881	8	3	3	2.1	5.7	4.9	5.95	0.86576128
292.11407847750525	2.0	CLOSE	1.196393566322513	StimuliTable-4960-Mapping-Run6.xlsx	75	szabadidő	örömteli	6	4	2	1588	9	4	1	1077	8	4	5	3.35	4.4	6.0	6.4	0.817380428
304.1136312465387	2.0	DISTANT	1.4120838939852547	StimuliTable-4960-Mapping-Run6.xlsx	2	albérlet	hátrányos	10	1	2	547	8	3	1	5583	9	3	6	4.3	4.4	4.3	4.05	0.60664767
316.1132114231877	2.0	DISTANT	1.172428287434741	StimuliTable-4960-Mapping-Run6.xlsx	13	bölcsőde	lokális	10	2	2	1219	8	3	1	578	7	3	3	1.75	4.7	5.35	6.55	0.6315799952000001
324.1135825787933	2.0	CLOSE	1.3480945168703329	StimuliTable-4960-Mapping-Run6.xlsx	39	készpénz	szerény	6	3	2	3600	8	2	3	3344	7	2	5	3.2	3.75	4.05	2.25	0.885355115
332.1139675662708	2.0	CLOSE	1.1884361337142764	StimuliTable-4960-Mapping-Run6.xlsx	88	törmelék	bontási	6	4	2	730	8	3	1	388	7	3	8	2.1	6.2	5.95	6.35	0.8136036990000001
340.1133840656112	2.0	BASELINE	1.2604026666813295	StimuliTable-4960-Mapping-Run6.xlsx	54	menetrend	szokásos	6	4	2	4833	9	3	2	8246	8	3	6	1.7	5.4	4.45	6.65	1.0
348.1167388101894	2.0	BASELINE	1.153003965402604	StimuliTable-4960-Mapping-Run6.xlsx	7	ásványvíz	minőségi	6	4	2	963	9	3	1	4832	8	4	2	1.85	6.05	5.25	6.4	1.0
356.130160606117	2.0	CLOSE	1.075767227797769	StimuliTable-4960-Mapping-Run6.xlsx	33	iránytű	előnyös	6	1	2	794	7	3	2	2414	7	3	1	1.35	2.9	3.25	2.35	0.8048268559999999
366.1296367874893	2.0	DISTANT	1.4675172251882032	StimuliTable-4960-Mapping-Run6.xlsx	43	kolbász	szezonális	8	3	2	867	7	2	2	973	10	4	1	1.6	3.9	3.95	3.15	0.605840862
374.146044477704	2.0	DISTANT	1.091114985742024	StimuliTable-4960-Mapping-Run6.xlsx	73	repülőjegy	azonnali	6	1	2	590	10	4	0	6934	8	4	2	2.4	6.0	5.7	6.2	0.665511608
382.1463872010936	2.0	CLOSE	1.0190782687423052	StimuliTable-4960-Mapping-Run6.xlsx	89	tudomány	építészeti	6	4	2	3986	8	3	5	1116	10	5	7	1.75	3.95	4.45	5.85	0.7951859240000001
390.14979317488906	2.0	BASELINE	1.0157214749924606	StimuliTable-4960-Mapping-Run6.xlsx	1	akadály	lehetetlen	6	4	2	6030	7	3	2	5822	10	4	6	5.4	4.65	3.6	6.3	1.0
402.16340451886936	2.0	DISTANT	1.378472411655821	StimuliTable-4960-Mapping-Run6.xlsx	29	hangszer	vezérkari	10	2	2	1828	8	2	3	996	9	4	6	1.6	4.65	4.05	4.85	0.6304627660000001
414.1629496035166	2.0	BASELINE	0.9064401003852254	StimuliTable-4960-Mapping-Run6.xlsx	19	diáklány	ártatlan	10	4	2	819	8	3	4	2035	8	3	5	2.8	5.3	5.35	6.6	1.0
422.1623389513843	2.0	DISTANT	1.0664222521154445	StimuliTable-4960-Mapping-Run6.xlsx	51	magazin	állatorvosi	6	2	2	7307	7	3	2	356	11	5	6	1.6	5.7	5.95	6.65	0.735963702
434.16287660189846	2.0	BASELINE	1.370444538872107	StimuliTable-4960-Mapping-Run6.xlsx	53	mellény	sportos	10	1	2	909	7	2	5	700	7	2	7	1.45	5.9	6.0	6.0	1.0
444.1624068300735	2.0	CLOSE	1.3622114931204123	StimuliTable-4960-Mapping-Run6.xlsx	42	kirándulás	tegnapi	8	3	2	1896	10	4	4	6241	7	3	8	2.15	6.7	5.15	6.1	0.839792311
456.1619611359784	2.0	DISTANT	1.1624572908476694	StimuliTable-4960-Mapping-Run6.xlsx	52	matrica	kedvezményes	10	2	2	1479	7	3	2	3115	12	4	6	1.9	5.2	5.8	6.1	0.701929092
464.1623607237998	2.0	CLOSE	1.5461658396961866	StimuliTable-4960-Mapping-Run6.xlsx	93	útmutatás	szellemi	6	1	2	703	9	4	2	6915	8	3	7	3.0	2.9	2.85	5.0	0.7834023237000001
474.16184202808654	2.0	BASELINE	1.5224718194513116	StimuliTable-4960-Mapping-Run6.xlsx	27	folyadék	elegendő	8	2	2	1438	8	3	3	9296	8	4	1	2.65	4.85	5.45	6.5	1.0
484.16229899259633	2.0	BASELINE	1.6424647088424535	StimuliTable-4960-Mapping-Run6.xlsx	90	tűzijáték	nagyszabású	8	3	2	1585	9	4	1	3070	11	4	1	2.9	6.2	6.9	6.6	1.0
492.1616747647204	2.0	DISTANT	1.162427577903145	StimuliTable-4960-Mapping-Run6.xlsx	6	áruházlánc	kockázatos	6	2	2	935	10	4	2	2073	10	4	4	3.05	2.95	2.7	3.7	0.71600765
500.1620938196284	2.0	BASELINE	0.8744559138140175	StimuliTable-4960-Mapping-Run6.xlsx	41	királynő	szépséges	6	4	2	2060	8	3	2	414	9	3	8	2.6	5.15	6.55	6.7	1.0
512.1616670803342	2.0	DISTANT	1.3225693086278625	StimuliTable-4960-Mapping-Run6.xlsx	55	mikrofon	köztéri	10	2	2	1847	8	3	1	615	7	3	2	1.65	5.9	5.5	5.45	0.60200268
522.1621161043295	2.0	DISTANT	1.03445061671664	StimuliTable-4960-Mapping-Run6.xlsx	57	műalkotás	posztmodern	8	4	2	784	9	4	1	346	11	3	1	2.75	5.65	4.95	6.05	0.619737864
530.1655118322815	2.0	CLOSE	0.0	StimuliTable-4960-Mapping-Run6.xlsx	13	bölcsőde	környékbeli	6	0	2	1219	8	3	1	1283	11	4	2	1.5	6.15	6.3	6.45	0.7846326231999999
542.1781154977798	2.0	CLOSE	0.9697901369945612	StimuliTable-4960-Mapping-Run6.xlsx	40	kesztyű	divatos	10	4	2	891	7	2	1	1703	7	3	3	1.95	6.05	6.2	6.75	0.753719985
552.1786088350345	2.0	DISTANT	1.1937875365983928	StimuliTable-4960-Mapping-Run6.xlsx	1	akadály	képzeletbeli	8	3	2	6030	7	3	2	646	12	5	1	3.85	3.6	3.95	6.0	0.681170285
564.1781731306401	2.0	BASELINE	1.0655521240551025	StimuliTable-4960-Mapping-Run6.xlsx	4	alkohol	legális	10	2	2	3138	7	3	2	1848	7	3	3	2.75	5.45	5.2	5.3	1.0
576.1777284611308	2.0	BASELINE	1.193800856199232	StimuliTable-4960-Mapping-Run6.xlsx	22	díszterem	patinás	10	3	2	1123	9	3	1	802	7	3	4	2.3	5.2	5.55	5.05	1.0
586.1782445953868	2.0	DISTANT	1.2175678780622547	StimuliTable-4960-Mapping-Run6.xlsx	76	szakadék	kedvezőtlen	8	2	2	1478	8	3	4	3202	11	4	2	3.95	2.85	3.3	2.35	0.659476936
596.1777253873734	2.0	DISTANT	1.3298351469711631	StimuliTable-4960-Mapping-Run6.xlsx	94	vacsora	ügyészségi	8	1	2	2517	7	3	1	1538	10	4	4	2.2	4.95	4.9	4.5	0.6062234639999999
606.178207198056	2.0	CLOSE	1.185569859604584	StimuliTable-4960-Mapping-Run6.xlsx	47	kommentár	tartalmas	8	3	2	2449	9	3	2	883	9	3	7	1.65	3.6	2.9	5.2	0.767767847
616.1776879900572	2.0	CLOSE	1.2258506161597325	StimuliTable-4960-Mapping-Run6.xlsx	21	díszlet	művészi	8	3	2	1420	7	2	3	2366	7	3	1	1.7	5.7	5.8	6.05	0.82010299
628.1782310196431	2.0	DISTANT	1.3695498207816854	StimuliTable-4960-Mapping-Run6.xlsx	26	fejfájás	sérüléses	10	2	2	1351	8	3	4	330	9	4	6	4.75	5.5	5.3	5.6	0.629661381
638.1947485965065	2.0	BASELINE	1.2570568872033618	StimuliTable-4960-Mapping-Run6.xlsx	17	csillagász	figyelmes	8	4	2	606	10	3	4	1273	9	3	8	1.9	4.4	4.85	5.8	1.0
646.1941341021738	2.0	CLOSE	1.3448522203980249	StimuliTable-4960-Mapping-Run6.xlsx	30	háziorvos	türelmetlen	6	1	2	2011	9	4	4	480	11	4	1	4.55	6.25	5.95	6.6	0.7620039581999999
