onset	duration	trial_type	response_time	stim_list	itemno	noun	adjective	jitter	response	counterbalance	noun_freq	noun_char	noun_syll	noun_phon	adj_freq	adj_char	adj_syll	adj_phon	arousal	concreteness	imageability	meaningfulness	cosine
28.033400759675715	2.0	CLOSE	1.79190258844028	StimuliTable-1776-Mapping-Run1.xlsx	32	horgász	hagyományos	10	2	2	707	7	2	2	15070	11	4	6	1.3	4.15	5.5	4.8	0.8027049303
36.0328175136674	2.0	DISTANT	1.3119615636533126	StimuliTable-1776-Mapping-Run1.xlsx	88	törmelék	életveszélyes	6	4	2	730	8	3	1	3907	13	5	3	4.75	5.8	6.2	6.4	0.657350659
46.033323147232295	2.0	DISTANT	1.6559299367072526	StimuliTable-1776-Mapping-Run1.xlsx	94	vacsora	ügyészségi	8	1	2	2517	7	3	1	1538	10	4	4	2.2	4.95	4.9	4.5	0.6062234639999999
58.03291766702751	2.0	BASELINE	1.2159206437136163	StimuliTable-1776-Mapping-Run1.xlsx	82	találmány	forradalmi	10	4	2	1346	9	3	4	2505	10	4	3	2.9	4.5	4.35	6.45	1.0
66.03333800374094	2.0	CLOSE	1.543917758470343	StimuliTable-1776-Mapping-Run1.xlsx	55	mikrofon	távközlési	6	4	2	1847	8	3	1	3781	10	4	8	1.75	3.85	3.55	4.2	0.7811700109999999
76.03683440603345	2.0	DISTANT	1.740250096503587	StimuliTable-1776-Mapping-Run1.xlsx	19	diáklány	törékeny	8	1	2	819	8	3	4	854	8	3	1	3.7	6.1	6.6	6.6	0.649407744
84.04924087086692	2.0	CLOSE	1.8712660536766637	StimuliTable-1776-Mapping-Run1.xlsx	28	gorilla	problémás	6	1	2	659	7	3	2	1593	9	3	8	3.3	4.7	4.55	4.65	0.775599658
94.05275904562586	2.0	DISTANT	1.1956794201250889	StimuliTable-1776-Mapping-Run1.xlsx	67	osztályzat	alapfokú	8	4	2	1028	10	3	3	821	8	4	4	2.6	4.3	2.9	3.95	0.713177145
106.06638015805947	2.0	CLOSE	1.878571869514417	StimuliTable-1776-Mapping-Run1.xlsx	72	rémálom	sajnálatos	10	1	2	769	7	3	1	2647	10	4	3	5.4	3.75	4.3	4.45	0.833719671
118.06596520042513	2.0	DISTANT	1.966541863461316	StimuliTable-1776-Mapping-Run1.xlsx	76	szakadék	kedvezőtlen	10	2	2	1478	8	3	4	3202	11	4	2	3.95	2.85	3.3	2.35	0.659476936
126.06537017166556	2.0	BASELINE	1.5985497486835811	StimuliTable-1776-Mapping-Run1.xlsx	17	csillagász	figyelmes	6	1	2	606	10	3	4	1273	9	3	8	1.9	4.4	4.85	5.8	1.0
136.0698739988802	2.0	DISTANT	1.7789510434522526	StimuliTable-1776-Mapping-Run1.xlsx	45	kolostor	puritán	8	3	2	1099	8	3	4	301	7	3	1	3.35	5.3	4.6	5.05	0.734071612
148.0825135572013	2.0	CLOSE	1.3816385857353453	StimuliTable-1776-Mapping-Run1.xlsx	66	oroszlán	csendes	10	4	2	1351	8	3	3	2305	7	2	7	2.15	5.45	5.7	6.3	0.851599276
156.08589136357477	2.0	BASELINE	1.2422169188503176	StimuliTable-1776-Mapping-Run1.xlsx	53	mellény	sportos	6	4	2	909	7	2	5	700	7	2	7	1.45	5.9	6.0	6.0	1.0
168.09851299162983	2.0	DISTANT	0.0	StimuliTable-1776-Mapping-Run1.xlsx	56	monitor	digitális	10	0	2	3644	7	3	3	11798	9	4	1	1.65	6.1	6.45	5.5	0.7256274220000001
178.09902041821624	2.0	BASELINE	1.5491895134618971	StimuliTable-1776-Mapping-Run1.xlsx	13	bölcsőde	szomszédos	8	4	2	1219	8	3	1	5450	10	3	7	1.7	6.1	5.1	6.55	1.0
186.0984148874486	2.0	BASELINE	1.4052156076286335	StimuliTable-1776-Mapping-Run1.xlsx	91	újságcikk	botrányos	6	4	2	503	9	3	0	1508	9	3	4	3.75	5.45	5.65	6.55	1.0
194.1018160031745	2.0	CLOSE	1.6897049266990507	StimuliTable-1776-Mapping-Run1.xlsx	18	csomagolás	tetszetős	6	1	2	1577	10	4	4	725	9	3	1	2.1	5.45	6.35	6.25	0.890869737
204.1153238987681	2.0	CLOSE	1.9565260156668955	StimuliTable-1776-Mapping-Run1.xlsx	96	ventilátor	erőteljes	8	3	2	1165	10	4	3	3772	9	4	1	2.75	5.75	5.6	5.45	0.84082365
214.11883643829788	2.0	BASELINE	1.224986699584406	StimuliTable-1776-Mapping-Run1.xlsx	52	matrica	fizetős	8	4	2	1479	7	3	2	2152	7	3	2	2.75	5.8	5.4	5.6	1.0
224.13233844251957	2.0	CLOSE	1.4278656346650678	StimuliTable-1776-Mapping-Run1.xlsx	44	kollégium	felsőoktatási	8	4	2	3139	9	4	3	5953	13	6	1	3.0	6.65	6.25	6.7	0.8090670109999999
234.13586097177176	2.0	DISTANT	1.4163615746147116	StimuliTable-1776-Mapping-Run1.xlsx	31	helyezés	időszaki	8	1	2	5834	8	3	4	796	8	4	1	2.25	2.55	1.65	2.85	0.617949784
244.14836861455117	2.0	CLOSE	0.0	StimuliTable-1776-Mapping-Run1.xlsx	59	műemlék	őshonos	8	0	2	1457	7	3	1	766	7	3	1	2.2	4.0	3.75	4.0	0.769399345
254.15186527298647	2.0	DISTANT	1.7677118390784017	StimuliTable-1776-Mapping-Run1.xlsx	29	hangszer	vezérkari	8	2	2	1828	8	2	3	996	9	4	6	1.6	4.65	4.05	4.85	0.6304627660000001
266.1654840800984	2.0	DISTANT	1.6905607127846451	StimuliTable-1776-Mapping-Run1.xlsx	42	kirándulás	mielőbbi	10	1	2	1896	10	4	4	1499	8	4	1	2.05	3.85	3.35	5.25	0.63326329
276.1689771524834	2.0	BASELINE	1.6468879586245748	StimuliTable-1776-Mapping-Run1.xlsx	77	szélvihar	hirtelen	8	4	2	490	9	3	0	6756	8	3	4	4.6	6.2	6.2	6.65	1.0
284.1813869472244	2.0	BASELINE	1.0018918994319392	StimuliTable-1776-Mapping-Run1.xlsx	33	iránytű	hasznos	6	4	2	794	7	3	2	9089	7	2	7	1.75	5.45	6.15	6.3	1.0
292.1817929397221	2.0	CLOSE	1.4176207917334978	StimuliTable-1776-Mapping-Run1.xlsx	26	fejfájás	borzalmas	6	4	2	1351	8	3	4	1061	9	3	6	5.8	5.95	6.0	6.75	0.831396163
302.19831363265985	2.0	CLOSE	1.4652059304135037	StimuliTable-1776-Mapping-Run1.xlsx	81	szőnyeg	mindennapi	8	1	2	1303	7	2	1	5073	10	4	3	1.35	3.9	5.0	4.05	0.75152117
310.19870835470647	2.0	DISTANT	1.344983482384123	StimuliTable-1776-Mapping-Run1.xlsx	41	királynő	példátlan	6	1	2	2060	8	3	2	2102	9	3	1	2.55	4.55	4.6	5.3	0.661574185
322.19831337651704	2.0	CLOSE	0.0	StimuliTable-1776-Mapping-Run1.xlsx	89	tudomány	építészeti	10	0	2	3986	8	3	5	1116	10	5	7	1.75	3.95	4.45	5.85	0.7951859240000001
330.1987319202017	2.0	BASELINE	1.0569531914952677	StimuliTable-1776-Mapping-Run1.xlsx	65	olimpikon	legendás	6	4	2	644	9	4	2	3949	8	3	5	2.15	5.8	5.5	6.6	1.0
342.1983284891685	2.0	CLOSE	1.553237911859469	StimuliTable-1776-Mapping-Run1.xlsx	64	novella	beszédes	10	3	2	925	7	3	1	637	8	3	7	3.3	4.4	3.75	4.9	0.783685148
354.200935550165	2.0	CLOSE	1.533757443947252	StimuliTable-1776-Mapping-Run1.xlsx	57	műalkotás	reneszánsz	10	4	2	784	9	4	1	1591	10	3	3	2.25	6.25	6.1	6.6	0.743859231
364.214441140437	2.0	BASELINE	1.6725290105314343	StimuliTable-1776-Mapping-Run1.xlsx	96	ventilátor	masszív	8	2	2	1165	10	4	3	982	7	2	2	1.6	4.5	5.6	5.5	1.0
374.217965462718	2.0	CLOSE	1.653096185895265	StimuliTable-1776-Mapping-Run1.xlsx	73	repülőjegy	hatályos	8	2	2	590	10	4	0	4539	8	3	2	2.8	3.75	3.4	3.7	0.8210387229999999
386.23055737775576	2.0	BASELINE	1.7199169162558974	StimuliTable-1776-Mapping-Run1.xlsx	16	csengőhang	többféle	10	1	2	2279	10	3	1	2956	8	3	1	2.25	4.55	3.55	5.8	1.0
394.234963356932	2.0	DISTANT	1.8603908337390749	StimuliTable-1776-Mapping-Run1.xlsx	92	útlezárás	gyorsforgalmi	6	1	2	1291	9	4	3	882	13	4	3	2.8	5.9	5.45	6.2	0.620973349
402.2473700779156	2.0	BASELINE	1.775197213741194	StimuliTable-1776-Mapping-Run1.xlsx	79	szerszám	trükkös	6	1	2	812	8	2	4	689	7	2	7	1.7	3.15	3.55	4.15	1.0
410.247790414629	2.0	CLOSE	1.5509318232288931	StimuliTable-1776-Mapping-Run1.xlsx	54	menetrend	változatlan	6	4	2	4833	9	3	2	3262	11	4	2	1.8	6.25	4.95	7.0	0.812076867
418.2471958981696	2.0	DISTANT	1.5432118181997794	StimuliTable-1776-Mapping-Run1.xlsx	80	színdarab	társulati	6	2	2	571	9	3	1	342	9	4	7	2.45	5.8	5.8	5.1	0.6175254579999999
426.24760214681737	2.0	DISTANT	1.503254984032537	StimuliTable-1776-Mapping-Run1.xlsx	33	iránytű	funkcionális	6	4	2	794	7	3	2	570	12	5	1	1.75	4.9	4.85	4.9	0.6793020959999999
438.2472099862353	2.0	BASELINE	1.279252912325319	StimuliTable-1776-Mapping-Run1.xlsx	30	háziorvos	elégedetlen	10	4	2	2011	9	4	4	2000	11	5	3	4.1	5.6	5.2	5.6	1.0
450.2478178223246	2.0	CLOSE	0.0	StimuliTable-1776-Mapping-Run1.xlsx	15	csecsemő	normális	10	0	2	2039	8	3	2	4470	8	3	4	2.95	4.65	4.75	4.45	0.7993261220000001
462.2474123421198	2.0	DISTANT	1.4392572463257238	StimuliTable-1776-Mapping-Run1.xlsx	43	kolbász	szezonális	10	1	2	867	7	2	2	973	10	4	1	1.6	3.9	3.95	3.15	0.605840862
474.251034768582	2.0	BASELINE	1.067704180284636	StimuliTable-1776-Mapping-Run1.xlsx	21	díszlet	színpadi	10	4	2	1420	7	2	3	1542	8	3	5	2.1	5.9	6.35	6.75	1.0
482.2634051167333	2.0	DISTANT	1.2785766850647633	StimuliTable-1776-Mapping-Run1.xlsx	38	kerékpár	hardveres	6	1	2	3466	8	3	3	1550	9	3	5	1.65	2.65	1.5	2.4	0.6436905860000001
494.2670488033691	2.0	DISTANT	1.315064268485003	StimuliTable-1776-Mapping-Run1.xlsx	14	boríték	lakossági	10	1	2	1364	7	3	3	6638	9	4	7	1.5	3.15	3.85	3.5	0.602748156
504.28154644976894	2.0	BASELINE	0.9166888020117768	StimuliTable-1776-Mapping-Run1.xlsx	88	törmelék	építkezési	8	4	2	730	8	3	1	395	10	5	7	1.9	6.55	6.8	6.4	1.0
512.296963150482	2.0	BASELINE	1.868922567628033	StimuliTable-1776-Mapping-Run1.xlsx	76	szakadék	iszonyatos	6	2	2	1478	8	3	4	452	10	4	6	5.1	4.75	5.85	5.65	1.0
522.3134572041599	2.0	CLOSE	1.4125967305953964	StimuliTable-1776-Mapping-Run1.xlsx	94	vacsora	meghívásos	8	1	2	2517	7	3	1	352	10	4	5	2.1	5.8	4.1	6.45	0.7889098529999999
532.3139766696477	2.0	BASELINE	1.2043095143380924	StimuliTable-1776-Mapping-Run1.xlsx	95	végállomás	ideiglenes	8	4	2	893	10	4	4	4073	10	5	1	2.95	4.15	3.65	4.7	1.0
542.3304753339689	2.0	CLOSE	1.3879264746283295	StimuliTable-1776-Mapping-Run1.xlsx	39	készpénz	szerény	8	4	2	3600	8	2	3	3344	7	2	5	3.2	3.75	4.05	2.25	0.885355115
550.3298943932823	2.0	CLOSE	1.2836424981214805	StimuliTable-1776-Mapping-Run1.xlsx	56	monitor	érintős	6	4	2	3644	7	3	3	784	7	3	3	1.5	6.55	6.45	6.45	0.8547784690000001
560.3303646786007	2.0	DISTANT	1.5879291385572287	StimuliTable-1776-Mapping-Run1.xlsx	68	ösztöndíj	partnerségi	8	2	2	2344	9	3	1	465	11	4	3	2.05	4.7	2.1	4.3	0.680144787
572.3299968519568	2.0	BASELINE	1.7475933097521192	StimuliTable-1776-Mapping-Run1.xlsx	40	kesztyű	férfias	10	1	2	891	7	2	1	506	7	3	6	1.7	5.45	4.85	5.4	1.0
584.3296011053244	2.0	DISTANT	1.8518921427821624	StimuliTable-1776-Mapping-Run1.xlsx	78	szemüveg	elsődleges	10	2	2	1594	8	3	4	6398	10	4	1	2.3	4.25	3.75	3.75	0.657139182
592.3300078662651	2.0	BASELINE	1.0116756783318124	StimuliTable-1776-Mapping-Run1.xlsx	51	magazin	tudományos	6	4	2	7307	7	3	2	11632	10	4	5	1.8	6.3	6.45	6.15	1.0
604.3296187794476	2.0	CLOSE	1.5239324254289386	StimuliTable-1776-Mapping-Run1.xlsx	13	bölcsőde	környékbeli	10	2	2	1219	8	3	1	1283	11	4	2	1.5	6.15	6.3	6.45	0.7846326231999999
612.3300247719453	2.0	DISTANT	1.8436137379612771	StimuliTable-1776-Mapping-Run1.xlsx	65	olimpikon	bravúros	6	3	2	644	9	4	2	461	8	3	2	2.9	5.15	5.5	6.5	0.613806427
624.3296333798062	2.0	DISTANT	1.7238772002092446	StimuliTable-1776-Mapping-Run1.xlsx	93	útmutatás	lelkiismereti	10	2	2	703	9	4	2	476	13	6	6	3.5	3.7	2.5	5.05	0.6710424423
634.330139525664	2.0	BASELINE	1.811609490032424	StimuliTable-1776-Mapping-Run1.xlsx	43	kolbász	tonnányi	8	3	2	867	7	2	2	533	8	3	1	2.6	6.05	5.95	6.15	1.0
646.3457644736336	2.0	BASELINE	1.7152576080043218	StimuliTable-1776-Mapping-Run1.xlsx	18	csomagolás	ízléses	10	2	2	1577	10	4	4	472	7	3	7	1.35	5.8	6.1	6.05	1.0
