onset	duration	trial_type	response_time	stim_list	itemno	noun	adjective	jitter	response	counterbalance	noun_freq	noun_char	noun_syll	noun_phon	adj_freq	adj_char	adj_syll	adj_phon	arousal	concreteness	imageability	meaningfulness	cosine
24.070118695512065	2.0	BASELINE	1.052129303541733	StimuliTable-2453-Mapping-Run5.xlsx	3	alkatrész	műszaki	6	3	2	2625	9	3	2	11955	7	3	1	1.6	5.9	5.6	6.45	1.0
34.05762004989083	2.0	BASELINE	0.8642669369583018	StimuliTable-2453-Mapping-Run5.xlsx	44	kollégium	főiskolai	8	4	2	3139	9	4	3	1294	9	5	2	2.5	6.6	6.2	6.45	1.0
44.06310106268211	2.0	CLOSE	0.9873540703993058	StimuliTable-2453-Mapping-Run5.xlsx	29	hangszer	könnyűzenei	8	3	2	1828	8	2	3	420	11	5	1	2.1	6.1	6.2	6.25	0.7948508259999999
56.0956912907568	2.0	BASELINE	0.8264984606939834	StimuliTable-2453-Mapping-Run5.xlsx	42	kirándulás	hétvégi	10	3	2	1896	10	4	4	4177	7	3	5	2.95	6.05	6.3	6.9	1.0
66.09617233301105	2.0	CLOSE	1.0743538139940938	StimuliTable-2453-Mapping-Run5.xlsx	33	iránytű	előnyös	8	2	2	794	7	3	2	2414	7	3	1	1.35	2.9	3.25	2.35	0.8048268559999999
74.11055826258962	2.0	CLOSE	1.139150307251839	StimuliTable-2453-Mapping-Run5.xlsx	76	szakadék	rettenetes	6	3	2	1478	8	3	4	868	10	4	8	5.2	5.15	6.55	6.15	0.891412258
82.1119329983485	2.0	BASELINE	0.9863789224618812	StimuliTable-2453-Mapping-Run5.xlsx	88	törmelék	építkezési	6	4	2	730	8	3	1	395	10	5	7	1.9	6.55	6.8	6.4	1.0
94.1275217897055	2.0	DISTANT	1.306502036488382	StimuliTable-2453-Mapping-Run5.xlsx	27	folyadék	aránytalan	10	2	2	1438	8	3	3	727	10	4	2	2.25	3.1	2.9	2.5	0.676598668
106.14408957120033	2.0	CLOSE	1.0098798085964518	StimuliTable-2453-Mapping-Run5.xlsx	69	pénztárca	titokzatos	10	1	2	1902	9	3	3	1438	10	4	2	2.65	3.3	3.3	3.25	0.799133718
114.16048650328594	2.0	BASELINE	0.849143050640123	StimuliTable-2453-Mapping-Run5.xlsx	65	olimpikon	legendás	6	4	2	644	9	4	2	3949	8	3	5	2.15	5.8	5.5	6.6	1.0
122.16686197802484	2.0	DISTANT	1.0908775383722968	StimuliTable-2453-Mapping-Run5.xlsx	38	kerékpár	hardveres	6	1	2	3466	8	3	3	1550	9	3	5	1.65	2.65	1.5	2.4	0.6436905860000001
130.17024925314763	2.0	CLOSE	0.9670849787507904	StimuliTable-2453-Mapping-Run5.xlsx	78	szemüveg	ideális	6	3	2	1594	8	3	4	3414	7	4	1	1.9	5.3	5.0	5.5	0.84095335
142.1778242597502	2.0	BASELINE	0.9759086972626392	StimuliTable-2453-Mapping-Run5.xlsx	13	bölcsőde	szomszédos	10	3	2	1219	8	3	1	5450	10	3	7	1.7	6.1	5.1	6.55	1.0
154.19340306140657	2.0	CLOSE	0.887924328315421	StimuliTable-2453-Mapping-Run5.xlsx	66	oroszlán	csendes	10	2	2	1351	8	3	3	2305	7	2	7	2.15	5.45	5.7	6.3	0.851599276
162.1997877574031	2.0	BASELINE	1.0656563754891977	StimuliTable-2453-Mapping-Run5.xlsx	77	szélvihar	hirtelen	6	3	2	490	9	3	0	6756	8	3	4	4.6	6.2	6.2	6.65	1.0
170.20320090327004	2.0	DISTANT	1.2138573466509115	StimuliTable-2453-Mapping-Run5.xlsx	31	helyezés	időszaki	6	2	2	5834	8	3	4	796	8	4	1	2.25	2.55	1.65	2.85	0.617949784
182.20975158190413	2.0	CLOSE	0.8796674609766342	StimuliTable-2453-Mapping-Run5.xlsx	80	színdarab	mulatságos	10	4	2	571	9	3	1	401	10	4	5	3.3	5.9	6.2	6.9	0.8485735059999999
194.22632986537064	2.0	BASELINE	1.0545690944854869	StimuliTable-2453-Mapping-Run5.xlsx	61	művészet	vizuális	10	4	2	6299	8	3	1	1406	8	4	1	2.15	4.8	4.3	5.65	1.0
204.22681167606788	2.0	BASELINE	0.8624972240213538	StimuliTable-2453-Mapping-Run5.xlsx	89	tudomány	mérnöki	8	4	2	3986	8	3	5	877	7	3	6	1.7	4.75	3.4	6.0	1.0
214.22629246805445	2.0	DISTANT	1.0625534224527655	StimuliTable-2453-Mapping-Run5.xlsx	67	osztályzat	alapfokú	8	3	2	1028	10	3	3	821	8	4	4	2.6	4.3	2.9	3.95	0.713177145
222.23268997135165	2.0	DISTANT	1.2244733189290855	StimuliTable-2453-Mapping-Run5.xlsx	82	találmány	kapitalista	6	1	2	1346	9	3	4	357	11	5	1	3.35	4.65	3.95	5.1	0.6249907020000001
230.23607340428865	2.0	BASELINE	1.0046103724307611	StimuliTable-2453-Mapping-Run5.xlsx	91	újságcikk	botrányos	6	3	2	503	9	3	0	1508	9	3	4	3.75	5.45	5.65	6.55	1.0
242.24864120934217	2.0	DISTANT	0.9918317591946106	StimuliTable-2453-Mapping-Run5.xlsx	19	diáklány	törékeny	10	3	2	819	8	3	4	854	8	3	1	3.7	6.1	6.6	6.6	0.649407744
254.25923131089075	2.0	CLOSE	1.4052757885947358	StimuliTable-2453-Mapping-Run5.xlsx	22	díszterem	tekintélyes	10	2	2	1123	9	3	1	2353	11	4	6	3.0	4.6	5.55	5.35	0.816129208
262.26561626301554	2.0	CLOSE	1.2632179677166278	StimuliTable-2453-Mapping-Run5.xlsx	63	napsütés	zavartalan	6	3	2	3340	8	3	2	1197	10	4	1	2.75	5.95	6.1	5.75	0.824103177
272.2710975319642	2.0	BASELINE	1.44971481981338	StimuliTable-2453-Mapping-Run5.xlsx	100	zöldség	rendszeres	8	3	2	2637	7	2	3	5423	10	3	8	1.9	2.0	2.65	2.4	1.0
284.275675886136	2.0	CLOSE	1.1089261000743136	StimuliTable-2453-Mapping-Run5.xlsx	28	gorilla	problémás	10	2	2	659	7	3	2	1593	9	3	8	3.3	4.7	4.55	4.65	0.775599658
296.29324263715534	2.0	DISTANT	1.0909367081039818	StimuliTable-2453-Mapping-Run5.xlsx	6	áruházlánc	kockázatos	10	1	2	935	10	4	2	2073	10	4	4	3.05	2.95	2.7	3.7	0.71600765
306.2937241916952	2.0	BASELINE	1.2667474038898945	StimuliTable-2453-Mapping-Run5.xlsx	17	csillagász	figyelmes	8	3	2	606	10	3	4	1273	9	3	8	1.9	4.4	4.85	5.8	1.0
318.31130554302945	2.0	DISTANT	1.3046544551616537	StimuliTable-2453-Mapping-Run5.xlsx	14	boríték	lakossági	10	2	2	1364	7	3	3	6638	9	4	7	1.5	3.15	3.85	3.5	0.602748156
330.3178805555217	2.0	DISTANT	1.1855137636157451	StimuliTable-2453-Mapping-Run5.xlsx	18	csomagolás	karakteres	10	2	2	1577	10	4	4	625	10	4	6	1.85	4.5	4.7	5.35	0.7101491090000001
340.3293630698463	2.0	BASELINE	0.9503714501624928	StimuliTable-2453-Mapping-Run5.xlsx	39	készpénz	csekély	8	3	2	3600	8	2	3	3258	7	2	2	4.95	4.5	5.7	6.15	1.0
350.3348445949232	2.0	DISTANT	1.3289586152532138	StimuliTable-2453-Mapping-Run5.xlsx	11	barlang	mesterséges	8	2	2	1015	7	2	2	2071	11	4	8	1.75	5.25	4.95	6.65	0.648987412
358.3442423366941	2.0	DISTANT	0.9914042514574248	StimuliTable-2453-Mapping-Run5.xlsx	33	iránytű	funkcionális	6	3	2	794	7	3	2	570	12	5	1	1.75	4.9	4.85	4.9	0.6793020959999999
368.3527120613872	2.0	BASELINE	1.2630709398945328	StimuliTable-2453-Mapping-Run5.xlsx	8	aszfalt	hibátlan	8	2	2	977	7	2	4	863	8	3	1	1.95	6.3	6.7	6.65	1.0
376.35910777165554	2.0	DISTANT	1.488477911116206	StimuliTable-2453-Mapping-Run5.xlsx	1	akadály	képzeletbeli	6	3	2	6030	7	3	2	646	12	5	1	3.85	3.6	3.95	6.0	0.681170285
386.3605790744623	2.0	BASELINE	1.4230976610415382	StimuliTable-2453-Mapping-Run5.xlsx	92	útlezárás	helyszíni	8	4	2	1291	9	4	3	4087	9	3	7	3.75	6.6	6.45	6.5	1.0
398.37715735794336	2.0	DISTANT	1.0301268716866616	StimuliTable-2453-Mapping-Run5.xlsx	65	olimpikon	bravúros	10	3	2	644	9	4	2	461	8	3	2	2.9	5.15	5.5	6.5	0.613806427
408.38564193909406	2.0	CLOSE	1.0538680228055457	StimuliTable-2453-Mapping-Run5.xlsx	67	osztályzat	átlagos	8	2	2	1028	10	3	3	10804	7	3	7	3.35	5.85	5.35	6.5	0.816440403
416.3920353440626	2.0	BASELINE	1.0390832738339668	StimuliTable-2453-Mapping-Run5.xlsx	4	alkohol	legális	6	4	2	3138	7	3	2	1848	7	3	3	2.75	5.45	5.2	5.3	1.0
428.4016341604584	2.0	CLOSE	1.2532280163432006	StimuliTable-2453-Mapping-Run5.xlsx	77	szélvihar	váratlan	10	3	2	490	9	3	0	2782	8	3	8	4.2	6.1	5.9	6.65	0.850282848
436.4090006641927	2.0	CLOSE	1.1585810329561357	StimuliTable-2453-Mapping-Run5.xlsx	81	szőnyeg	mindennapi	6	1	2	1303	7	2	1	5073	10	4	3	1.35	3.9	5.0	4.05	0.75152117
444.4153956060181	2.0	DISTANT	1.015897959616268	StimuliTable-2453-Mapping-Run5.xlsx	47	kommentár	szakorvosi	6	3	2	2449	9	3	2	348	10	4	6	2.85	5.15	3.5	5.7	0.625912845
452.4187585472828	2.0	CLOSE	1.06808002924663	StimuliTable-2453-Mapping-Run5.xlsx	82	találmány	újszerű	6	3	2	1346	9	3	4	1147	7	3	1	2.2	5.1	4.05	5.75	0.758028567
462.4302431107644	2.0	BASELINE	1.2409383858757792	StimuliTable-2453-Mapping-Run5.xlsx	76	szakadék	iszonyatos	8	2	2	1478	8	3	4	452	10	4	6	5.1	4.75	5.85	5.65	1.0
474.4408291139698	2.0	CLOSE	1.150112845134572	StimuliTable-2453-Mapping-Run5.xlsx	30	háziorvos	türelmetlen	10	2	2	2011	9	4	4	480	11	4	1	4.55	6.25	5.95	6.6	0.7620039581999999
482.4462161211704	2.0	CLOSE	1.3442141606210498	StimuliTable-2453-Mapping-Run5.xlsx	42	kirándulás	tegnapi	6	3	2	1896	10	4	4	6241	7	3	8	2.15	6.7	5.15	6.1	0.839792311
492.45168560738966	2.0	DISTANT	1.2508110223716358	StimuliTable-2453-Mapping-Run5.xlsx	88	törmelék	életveszélyes	8	3	2	730	8	3	1	3907	13	5	3	4.75	5.8	6.2	6.4	0.657350659
502.4631678655569	2.0	BASELINE	1.2876735101162922	StimuliTable-2453-Mapping-Run5.xlsx	14	boríték	érvénytelen	8	1	2	1364	7	3	3	1401	11	4	2	2.8	4.1	4.1	3.4	1.0
512.4686488783482	2.0	DISTANT	1.0341908846312435	StimuliTable-2453-Mapping-Run5.xlsx	16	csengőhang	általános	8	2	2	2279	10	3	1	25132	9	4	3	2.4	5.65	4.6	5.45	0.712553442
524.4812389681174	2.0	BASELINE	0.8854074373957701	StimuliTable-2453-Mapping-Run5.xlsx	7	ásványvíz	minőségi	10	3	2	963	9	3	1	4832	8	4	2	1.85	6.05	5.25	6.4	1.0
534.4897227808397	2.0	DISTANT	1.116208844046923	StimuliTable-2453-Mapping-Run5.xlsx	83	tananyag	akadémiai	8	4	2	1192	8	3	3	833	9	6	2	3.25	5.3	4.35	6.45	0.6859960559999999
544.490201517765	2.0	CLOSE	1.0763538022292778	StimuliTable-2453-Mapping-Run5.xlsx	40	kesztyű	divatos	8	3	2	891	7	2	1	1703	7	3	3	1.95	6.05	6.2	6.75	0.753719985
556.5067695554026	2.0	CLOSE	0.9148086473869624	StimuliTable-2453-Mapping-Run5.xlsx	68	ösztöndíj	képzési	10	4	2	2344	9	3	1	2239	7	3	7	3.6	5.6	4.35	6.55	0.819112897
568.5173478742363	2.0	BASELINE	0.9288175300316652	StimuliTable-2453-Mapping-Run5.xlsx	2	albérlet	szegényes	10	2	2	547	8	3	1	439	9	3	7	4.5	5.55	6.5	6.05	1.0
576.5237325702328	2.0	CLOSE	0.8181770445517031	StimuliTable-2453-Mapping-Run5.xlsx	41	királynő	gyönyörű	6	4	2	2060	8	3	2	4450	8	3	6	2.95	5.7	6.7	6.6	0.846518397
586.5242166862299	2.0	DISTANT	1.0978329277277226	StimuliTable-2453-Mapping-Run5.xlsx	22	díszterem	miniszteri	8	2	2	1123	9	3	1	4544	10	4	7	2.6	6.6	5.9	5.45	0.636730134
594.5396000484616	2.0	DISTANT	1.050256363756489	StimuliTable-2453-Mapping-Run5.xlsx	29	hangszer	vezérkari	6	2	2	1828	8	2	3	996	9	4	6	1.6	4.65	4.05	4.85	0.6304627660000001
606.541177651874	2.0	CLOSE	1.120894267281983	StimuliTable-2453-Mapping-Run5.xlsx	8	aszfalt	szabályos	10	2	2	977	7	2	4	978	9	3	5	1.1	5.1	5.6	4.75	0.777173936
616.5566706446116	2.0	BASELINE	1.008789907224127	StimuliTable-2453-Mapping-Run5.xlsx	63	napsütés	felhőtlen	8	4	2	3340	8	3	2	612	9	3	1	3.0	6.1	6.45	6.6	1.0
626.5581529617048	2.0	DISTANT	1.2475338900403583	StimuliTable-2453-Mapping-Run5.xlsx	17	csillagász	tisztességes	8	3	2	606	10	3	4	3762	12	4	7	1.35	4.4	3.5	5.45	0.601381719
638.574719462471	2.0	CLOSE	1.32663383387262	StimuliTable-2453-Mapping-Run5.xlsx	92	útlezárás	félpályás	10	4	2	1291	9	4	3	1206	9	3	2	2.95	6.3	6.3	6.3	0.78665024
646.5741157262673	2.0	DISTANT	1.1435921356023755	StimuliTable-2453-Mapping-Run5.xlsx	32	horgász	járatos	6	3	2	707	7	2	2	317	7	3	6	1.45	4.9	3.05	5.0	0.6454380751
