onset	duration	trial_type	response_time	stim_list	itemno	noun	adjective	jitter	response	counterbalance	noun_freq	noun_char	noun_syll	noun_phon	adj_freq	adj_char	adj_syll	adj_phon	arousal	concreteness	imageability	meaningfulness	cosine
28.036481017057667	2.0	CLOSE	1.6128235557116568	StimuliTable-4298-Mapping-Run4.xlsx	16	csengőhang	változatos	10	2	1	2279	10	3	1	2172	10	4	6	2.55	4.0	4.4	5.35	0.843068182
36.04989827108511	2.0	CLOSE	1.471674330168753	StimuliTable-4298-Mapping-Run4.xlsx	78	szemüveg	ideális	6	3	1	1594	8	3	4	3414	7	4	1	1.9	5.3	5.0	5.5	0.84095335
48.05353172116156	2.0	DISTANT	1.5240103555261155	StimuliTable-4298-Mapping-Run4.xlsx	31	helyezés	időszaki	10	1	1	5834	8	3	4	796	8	4	1	2.25	2.55	1.65	2.85	0.617949784
56.06596383251599	2.0	DISTANT	1.519015738464077	StimuliTable-4298-Mapping-Run4.xlsx	3	alkatrész	karbantartási	6	4	1	2625	9	3	2	503	13	5	4	1.55	4.7	4.65	4.65	0.6785420179
64.07040056065307	2.0	BASELINE	1.507481935856049	StimuliTable-4298-Mapping-Run4.xlsx	47	kommentár	terjedelmes	6	2	1	2449	9	3	2	699	11	4	5	2.2	4.4	4.0	5.3	1.0
74.08292898340733	2.0	DISTANT	1.478326988988556	StimuliTable-4298-Mapping-Run4.xlsx	44	kollégium	közüzemi	8	2	1	3139	9	4	3	1019	8	4	4	2.75	4.6	4.35	3.9	0.6578273179999999
86.08656294578395	2.0	BASELINE	1.330797389236977	StimuliTable-4298-Mapping-Run4.xlsx	42	kirándulás	hétvégi	10	3	1	1896	10	4	4	4177	7	3	5	2.95	6.05	6.3	6.9	1.0
94.0999894211127	2.0	BASELINE	1.3976544075412676	StimuliTable-4298-Mapping-Run4.xlsx	97	világítás	hangulatos	6	2	1	1393	9	4	5	1112	10	4	5	2.95	5.9	6.4	6.85	1.0
102.09941616335708	2.0	CLOSE	1.725591143243946	StimuliTable-4298-Mapping-Run4.xlsx	49	lépcsőház	földszinti	6	2	1	634	9	3	1	355	10	3	4	1.5	5.85	5.2	5.6	0.757668078
112.09994843754976	2.0	BASELINE	1.66178996275994	StimuliTable-4298-Mapping-Run4.xlsx	52	matrica	fizetős	8	1	1	1479	7	3	2	2152	7	3	2	2.75	5.8	5.4	5.6	1.0
120.09937184986484	2.0	DISTANT	1.285452393363812	StimuliTable-4298-Mapping-Run4.xlsx	13	bölcsőde	lokális	6	1	1	1219	8	3	1	578	7	3	3	1.75	4.7	5.35	6.55	0.6315799952000001
130.09991565068776	2.0	DISTANT	1.1816732722800225	StimuliTable-4298-Mapping-Run4.xlsx	100	zöldség	korlátlan	8	4	1	2637	7	2	3	1924	9	3	2	2.05	3.9	4.75	3.95	0.7183503509999999
138.0993329154735	2.0	CLOSE	1.061847032397054	StimuliTable-4298-Mapping-Run4.xlsx	89	tudomány	építészeti	6	4	1	3986	8	3	5	1116	10	5	7	1.75	3.95	4.45	5.85	0.7951859240000001
148.10286646809254	2.0	DISTANT	1.7542325146787334	StimuliTable-4298-Mapping-Run4.xlsx	54	menetrend	naprakész	8	4	1	4833	9	3	2	816	9	3	1	2.3	5.35	4.4	6.1	0.7033958440000001
156.11629243113566	2.0	CLOSE	1.4772242746694246	StimuliTable-4298-Mapping-Run4.xlsx	18	csomagolás	tetszetős	6	3	1	1577	10	4	4	725	9	3	1	2.1	5.45	6.35	6.25	0.890869737
166.1198226538254	2.0	DISTANT	1.545516230398789	StimuliTable-4298-Mapping-Run4.xlsx	76	szakadék	kedvezőtlen	8	2	1	1478	8	3	4	3202	11	4	2	3.95	2.85	3.3	2.35	0.659476936
176.13235876099498	2.0	CLOSE	1.444364668772323	StimuliTable-4298-Mapping-Run4.xlsx	38	kerékpár	intelligens	8	1	1	3466	8	3	3	2053	11	4	1	1.9	3.15	2.8	3.4	0.787231982
188.1360086045024	2.0	CLOSE	1.6170333373302128	StimuliTable-4298-Mapping-Run4.xlsx	30	háziorvos	türelmetlen	10	2	1	2011	9	4	4	480	11	4	1	4.55	6.25	5.95	6.6	0.7620039581999999
196.1494194548577	2.0	BASELINE	1.323883972436306	StimuliTable-4298-Mapping-Run4.xlsx	26	fejfájás	kellemetlen	6	4	1	1351	8	3	4	3486	11	4	1	5.85	5.5	5.25	6.7	1.0
204.15284645017528	2.0	CLOSE	0.0	StimuliTable-4298-Mapping-Run4.xlsx	58	műanyag	értelmetlen	6	0	1	3590	7	3	1	1912	11	4	2	3.0	3.65	3.75	2.75	0.908448935
212.16628855049203	2.0	CLOSE	1.4270229812827893	StimuliTable-4298-Mapping-Run4.xlsx	51	magazin	kutatási	6	4	1	7307	7	3	2	3464	8	4	6	1.7	4.85	4.8	5.1	0.882873833
224.1659120139084	2.0	BASELINE	1.242905294886441	StimuliTable-4298-Mapping-Run4.xlsx	7	ásványvíz	minőségi	10	2	1	963	9	3	1	4832	8	4	2	1.85	6.05	5.25	6.4	1.0
232.1823438660358	2.0	CLOSE	1.666518698897562	StimuliTable-4298-Mapping-Run4.xlsx	86	telefonszám	háztartási	6	1	1	4732	11	4	2	1415	10	4	4	2.1	4.3	3.4	4.5	0.7732623820000001
244.1829914065165	2.0	BASELINE	1.5623043834784769	StimuliTable-4298-Mapping-Run4.xlsx	36	kastély	csodálatos	10	4	1	2771	7	2	4	3144	10	4	8	2.85	6.0	6.75	6.35	1.0
256.1986335563852	2.0	CLOSE	0.0	StimuliTable-4298-Mapping-Run4.xlsx	72	rémálom	sajnálatos	10	0	1	769	7	3	1	2647	10	4	3	5.4	3.75	4.3	4.45	0.833719671
266.2021701827616	2.0	BASELINE	1.294166526000481	StimuliTable-4298-Mapping-Run4.xlsx	28	gorilla	érzékeny	8	1	1	659	7	3	2	3895	8	3	3	3.1	4.0	4.3	4.9	1.0
274.21559281589	2.0	DISTANT	1.401027099622297	StimuliTable-4298-Mapping-Run4.xlsx	90	tűzijáték	verhetetlen	6	1	1	1585	9	4	1	357	11	4	2	2.4	3.2	4.55	3.15	0.664982438
286.2192165323649	2.0	BASELINE	1.2533130737865577	StimuliTable-4298-Mapping-Run4.xlsx	43	kolbász	tonnányi	10	4	1	867	7	2	2	533	8	3	1	2.6	6.05	5.95	6.15	1.0
298.231861502165	2.0	DISTANT	0.0	StimuliTable-4298-Mapping-Run4.xlsx	6	áruházlánc	kockázatos	10	0	1	935	10	4	2	2073	10	4	4	3.05	2.95	2.7	3.7	0.71600765
308.2353896756831	2.0	BASELINE	1.461113119017682	StimuliTable-4298-Mapping-Run4.xlsx	17	csillagász	figyelmes	8	4	1	606	10	3	4	1273	9	3	8	1.9	4.4	4.85	5.8	1.0
318.24892296445614	2.0	BASELINE	1.4636697256646585	StimuliTable-4298-Mapping-Run4.xlsx	88	törmelék	építkezési	8	3	1	730	8	3	1	395	10	5	7	1.9	6.55	6.8	6.4	1.0
326.2523491913307	2.0	DISTANT	1.4202086934819818	StimuliTable-4298-Mapping-Run4.xlsx	33	iránytű	funkcionális	6	2	1	794	7	3	2	570	12	5	1	1.75	4.9	4.85	4.9	0.6793020959999999
338.26498903817264	2.0	CLOSE	0.8470139495184412	StimuliTable-4298-Mapping-Run4.xlsx	44	kollégium	felsőoktatási	10	2	1	3139	9	4	3	5953	13	6	1	3.0	6.65	6.25	6.7	0.8090670109999999
350.2656447753834	2.0	DISTANT	1.4630188552691834	StimuliTable-4298-Mapping-Run4.xlsx	53	mellény	kamionos	10	1	1	909	7	2	5	543	8	4	7	1.4	6.25	5.7	6.1	0.629222572
360.26517628188594	2.0	BASELINE	1.2391957690706477	StimuliTable-4298-Mapping-Run4.xlsx	15	csecsemő	egészséges	8	3	1	2039	8	3	2	7076	10	4	8	2.6	6.5	6.55	6.6	1.0
370.2656650110148	2.0	CLOSE	1.5751952547143446	StimuliTable-4298-Mapping-Run4.xlsx	98	zarándok	vallásos	8	4	1	1047	8	3	2	1343	8	3	5	2.25	5.35	5.7	5.8	0.8485714790000001
382.2653589149413	2.0	DISTANT	1.006723611644702	StimuliTable-4298-Mapping-Run4.xlsx	95	végállomás	belvárosi	10	2	1	893	10	4	4	2263	9	4	7	2.1	5.7	5.7	6.1	0.709046066
392.26487018581247	2.0	DISTANT	1.4312268715002574	StimuliTable-4298-Mapping-Run4.xlsx	52	matrica	kedvezményes	8	1	1	1479	7	3	2	3115	12	4	6	1.9	5.2	5.8	6.1	0.701929092
402.2654024599906	2.0	CLOSE	1.4788943553576246	StimuliTable-4298-Mapping-Run4.xlsx	5	állatkert	különleges	8	1	1	2056	9	3	3	12581	10	4	1	2.5	4.8	5.2	5.4	0.8002586359999999
412.2819360026188	2.0	DISTANT	1.6144085954874754	StimuliTable-4298-Mapping-Run4.xlsx	29	hangszer	vezérkari	8	2	1	1828	8	2	3	996	9	4	6	1.6	4.65	4.05	4.85	0.6304627660000001
424.2825704795832	2.0	BASELINE	1.230263655015733	StimuliTable-4298-Mapping-Run4.xlsx	54	menetrend	szokásos	10	4	1	4833	9	3	2	8246	8	3	6	1.7	5.4	4.45	6.65	1.0
432.29801104149374	2.0	BASELINE	1.3976935980899725	StimuliTable-4298-Mapping-Run4.xlsx	69	pénztárca	ismeretlen	6	2	1	1902	9	3	3	17883	10	4	7	3.55	4.9	4.9	6.15	1.0
442.29854510870064	2.0	DISTANT	1.5174232704302997	StimuliTable-4298-Mapping-Run4.xlsx	4	alkohol	szabványos	8	1	1	3138	7	3	2	1426	10	3	2	1.9	2.9	3.45	2.95	0.640375018
454.2981693405454	2.0	CLOSE	1.6936967005458428	StimuliTable-4298-Mapping-Run4.xlsx	1	akadály	reménytelen	10	2	1	6030	7	3	2	1273	11	4	4	4.8	3.9	2.9	4.5	0.8418771620000001
462.2986009488232	2.0	DISTANT	1.4374402376270154	StimuliTable-4298-Mapping-Run4.xlsx	9	baktérium	szabadtéri	6	2	1	1448	9	4	1	2682	10	4	5	3.7	3.25	2.6	3.2	0.6112335320000001
470.298038193112	2.0	BASELINE	1.2138781655667117	StimuliTable-4298-Mapping-Run4.xlsx	90	tűzijáték	nagyszabású	6	3	1	1585	9	4	1	3070	11	4	1	2.9	6.2	6.9	6.6	1.0
482.2986601188604	2.0	BASELINE	1.461641038695234	StimuliTable-4298-Mapping-Run4.xlsx	77	szélvihar	hirtelen	10	4	1	490	9	3	0	6756	8	3	4	4.6	6.2	6.2	6.65	1.0
490.2980886541336	2.0	DISTANT	1.6376949505356606	StimuliTable-4298-Mapping-Run4.xlsx	18	csomagolás	karakteres	6	1	1	1577	10	4	4	625	10	4	6	1.85	4.5	4.7	5.35	0.7101491090000001
500.2986467992014	2.0	CLOSE	0.0	StimuliTable-4298-Mapping-Run4.xlsx	27	folyadék	optimális	8	0	1	1438	8	3	3	1679	9	4	2	1.8	3.5	3.45	3.25	0.841039181
510.298167035231	2.0	DISTANT	1.7175724506378174	StimuliTable-4298-Mapping-Run4.xlsx	14	boríték	lakossági	8	1	1	1364	7	3	3	6638	9	4	7	1.5	3.15	3.85	3.5	0.602748156
520.2977000786195	2.0	CLOSE	1.4857370755053123	StimuliTable-4298-Mapping-Run4.xlsx	26	fejfájás	borzalmas	8	1	1	1351	8	3	4	1061	9	3	6	5.8	5.95	6.0	6.75	0.831396163
528.3021155465394	2.0	BASELINE	1.3302364265546205	StimuliTable-4298-Mapping-Run4.xlsx	58	műanyag	felesleges	6	2	1	3590	7	3	1	4304	10	4	7	3.55	4.95	5.15	6.3	1.0
538.3146590819815	2.0	CLOSE	1.6050535821705123	StimuliTable-4298-Mapping-Run4.xlsx	47	kommentár	tartalmas	8	3	1	2449	9	3	2	883	9	3	7	1.65	3.6	2.9	5.2	0.767767847
548.3181775218982	2.0	CLOSE	1.6575476504513065	StimuliTable-4298-Mapping-Run4.xlsx	88	törmelék	bontási	8	2	1	730	8	3	1	388	7	3	8	2.1	6.2	5.95	6.35	0.8136036990000001
560.3318168556725	2.0	BASELINE	1.732377254840685	StimuliTable-4298-Mapping-Run4.xlsx	41	királynő	szépséges	10	4	1	2060	8	3	2	414	9	3	8	2.6	5.15	6.55	6.7	1.0
572.3314582493913	2.0	CLOSE	1.124441246589413	StimuliTable-4298-Mapping-Run4.xlsx	20	diktátor	szörnyű	10	4	1	1821	8	3	4	2251	7	2	4	6.3	5.9	6.4	6.55	0.8910186290000001
584.3311101451545	2.0	CLOSE	1.6763027589768171	StimuliTable-4298-Mapping-Run4.xlsx	2	albérlet	siralmas	10	2	1	547	8	3	1	402	8	3	5	5.05	5.45	6.05	6.0	0.7793105840000001
596.3477453782689	2.0	DISTANT	1.299687269711285	StimuliTable-4298-Mapping-Run4.xlsx	40	kesztyű	paraszti	10	1	1	891	7	2	1	347	8	3	4	1.6	3.7	4.35	3.15	0.61781317
608.3514011131629	2.0	BASELINE	0.8562414014595561	StimuliTable-4298-Mapping-Run4.xlsx	31	helyezés	végleges	10	2	1	5834	8	3	4	7802	8	3	3	2.95	4.45	3.65	5.2	1.0
616.3648060721316	2.0	DISTANT	1.7150465816666838	StimuliTable-4298-Mapping-Run4.xlsx	15	csecsemő	tevékeny	6	3	1	2039	8	3	2	403	8	3	2	2.4	4.65	4.65	4.15	0.655481756
626.3683391124505	2.0	BASELINE	1.831489371295902	StimuliTable-4298-Mapping-Run4.xlsx	78	szemüveg	kényelmes	8	4	1	1594	8	3	4	3437	9	3	8	2.15	6.1	6.05	6.7	1.0
638.3809784469922	2.0	BASELINE	1.6826165348757058	StimuliTable-4298-Mapping-Run4.xlsx	16	csengőhang	többféle	10	1	1	2279	10	3	1	2956	8	3	1	2.25	4.55	3.55	5.8	1.0
646.3844049300242	2.0	DISTANT	1.519002931090654	StimuliTable-4298-Mapping-Run4.xlsx	69	pénztárca	alvilági	6	2	1	1902	9	3	3	393	8	4	3	3.55	2.25	2.8	2.6	0.690712929
