onset	duration	trial_type	response_time	stim_list	itemno	noun	adjective	order	response	correctness	noun_freq	noun_char	noun_syll	noun_phon	adj_freq	adj_char	adj_syll	adj_phon	arousal	concreteness	imageability	meaningfulness	cosine
22.08307733606489	2.0	FILLER	1.805546754068928	4_1	26	észrevétel	lényegtelen	1	good		1877	10	4	3	442	11	4	2	2.95	4.3	2.15	5.9	0.0
30.08249665153562	2.0	FILLER	1.1975700388284167	4_1	27	felajánlás	tömeges	1	good		1792	10	4	4	3303	7	3	8	3.5	4.8	3.9	5.6	0.0
40.082989990056376	2.0	DISTANT	1.1975410942541205	4_1	85	távirat	udvarias	1	no-good	1	635	7	3	2	446	8	4	1	2.1	4.8	4.45	5.15	1.0
46.08229455178662	2.0	REPEAT	1.0455229016952217	4_1	68	ösztöndíj	tanulmányi	1	good	0	2344	9	3	1	1823	10	4	8	3.6	6.65	4.5	6.8	1.0
56.08581272655283	2.0	FILLER	0.9381326342991088	4_1	28	felsorolás	tartalmi	1	good		1057	10	4	4	1984	8	3	5	1.4	4.15	3.95	6.0	0.0
66.09931934141787	2.0	DISTANT	1.1008966927183792	4_1	86	telefonszám	otthoni	1	good	1	4732	11	4	2	4288	7	3	8	1.4	6.5	4.3	6.65	1.0
74.09871534752892	2.0	FILLER	1.1489126701198984	4_1	29	fenyegetés	írásbeli	1	good		5210	10	4	5	2291	8	4	6	5.5	6.45	5.15	6.45	0.0
80.11603009518876	2.0	REPEAT	1.076249489953625	4_1	69	pénztárca	ismeretlen	1	good	1	1902	9	3	3	17883	10	4	7	3.55	4.9	4.9	6.15	1.0
86.11534336592013	2.0	FILLER	1.436240094481036	4_1	30	fertőzés	hosszútávú	1	no-good		3797	8	3	1	563	10	4	1	6.0	5.2	3.65	5.8	0.0
92.11562820103428	2.0	REPEAT	1.45192600536393	4_1	70	pisztoly	törvénytelen	1	no-good	1	1679	8	2	3	1475	12	4	3	4.75	4.9	4.9	5.3	1.0
100.1320451545762	2.0	FILLER	1.187614641661639	4_1	31	focista	rugalmas	1	no-good		744	7	3	1	2314	8	3	1	1.85	4.0	3.7	4.0	0.0
104.13224802273908	2.0	REPEAT	1.2515852278156672	4_1	71	professzor	közgazdasági	1	good	1	6091	10	3	5	1411	12	5	4	1.9	6.5	5.5	6.65	1.0
108.13244038891573	2.0	DISTANT	1.8915935986879049	4_1	87	tévéműsor	félelmetes	1	no-good	1	648	9	4	1	1112	10	4	2	5.45	5.8	5.05	6.6	1.0
120.1320484844764	2.0	CLOSE	1.323609065861092	4_1	9	baktérium	növényi	1	no-good	1	1448	9	4	1	968	7	3	7	2.25	4.75	2.95	5.85	1.0
126.13236328875064	2.0	CLOSE	1.0355833856156096	4_1	10	barátnő	középkorú	1	good	1	3479	7	3	1	1253	9	4	8	1.95	5.9	5.5	6.1	1.0
136.13586045948614	2.0	REPEAT	0.0	4_1	72	rémálom	szomorú	1		1	769	7	3	1	3745	7	3	3	5.8	4.8	4.45	5.5	1.0
140.14906328437792	2.0	FILLER	1.010921838635113	4_1	32	főhadnagy	harcias	1	good		1176	9	3	1	437	7	3	1	3.25	6.0	6.0	5.75	0.0
148.14846876791853	2.0	CLOSE	1.0429668138967827	4_1	11	barlang	lakatlan	1	no-good	1	1015	7	2	2	471	8	3	2	2.9	6.2	6.1	6.3	1.0
154.1487735824776	2.0	CLOSE	1.0909889388130978	4_1	12	benzinkút	hajnali	1	no-good	1	1490	9	3	1	3888	7	3	8	2.85	5.25	6.5	4.8	1.0
162.16524996203952	2.0	FILLER	1.4743040046159877	4_1	33	földrengés	sorozatos	1	good		4360	10	3	5	1199	9	4	5	5.8	6.1	5.0	6.05	0.0
168.16548382396286	2.0	DISTANT	1.5783110865741037	4_1	88	törmelék	építkezési	1	good	1	730	8	3	1	395	10	5	7	1.9	6.55	6.8	6.4	1.0
174.16478761726466	2.0	FILLER	1.3222988755442202	4_1	34	forgatás	tökéletes	1	no-good		2380	8	3	5	5587	9	4	4	1.6	4.35	3.65	5.3	0.0
184.18129575901548	2.0	REPEAT	1.081650599007844	4_1	73	repülőjegy	érvényes	1	good	1	590	10	4	0	10878	8	3	6	2.8	6.75	6.4	6.9	1.0
190.1816110755899	2.0	REPEAT	1.025628244577092	4_1	68	ösztöndíj	tanulmányi	2	good	0	2344	9	3	1	1823	10	4	8	3.6	6.65	4.5	6.8	1.0
198.1980062566436	2.0	DISTANT	1.2169995335571002	4_1	85	távirat	formális	2	no-good	1	635	7	3	2	897	8	3	2	2.35	4.3	5.15	6.0	0.6985746620000001
204.1983210609178	2.0	FILLER	1.344998595042853	4_1	35	frontember	lendületes	1	good		588	10	3	0	483	10	4	8	1.6	4.6	5.6	5.6	0.0
210.1976256226626	2.0	DISTANT	1.2810144330869662	4_1	86	telefonszám	térségbeli	2	no-good	1	4732	11	4	2	1020	10	4	1	1.6	5.45	3.15	4.9	0.631895483
218.1980203447165	2.0	DISTANT	1.18495225298102	4_1	89	tudomány	mérnöki	1	good	1	3986	8	3	5	877	7	3	6	1.7	4.75	3.4	6.0	1.0
222.1982337149093	2.0	CLOSE	1.4330075232719537	4_1	13	bölcsőde	szomszédos	1	good	0	1219	8	3	1	5450	10	3	7	1.7	6.1	5.1	6.55	1.0
226.19842608107135	2.0	REPEAT	1.4810117179440567	4_1	69	pénztárca	ismeretlen	2	good	1	1902	9	3	3	17883	10	4	7	3.55	4.9	4.9	6.15	1.0
236.23893516749376	2.0	FILLER	1.1756123762897914	4_1	36	fürdőszoba	keskeny	1	good		729	10	4	1	762	7	2	1	2.45	6.4	6.6	6.35	0.0
240.21414913321496	2.0	REPEAT	1.128365863536601	4_1	70	pisztoly	törvénytelen	2	no-good	1	1679	8	2	3	1475	12	4	3	4.75	4.9	4.9	5.3	1.0
246.2144524109026	2.0	REPEAT	1.06436146600754	4_1	71	professzor	közgazdasági	2	good	1	6091	10	3	5	1411	12	5	4	1.9	6.5	5.5	6.65	1.0
254.2148576349573	2.0	DISTANT	1.2323696155799553	4_1	87	tévéműsor	paradox	2	no-good	1	648	9	4	1	662	7	3	1	3.3	2.8	2.15	3.7	0.6147992015
260.2311618839449	2.0	CLOSE	1.0716598535946105	4_1	10	barátnő	tizenéves	2	good	1	3479	7	3	1	940	9	4	2	3.85	5.45	5.9	6.2	0.8318079709999999
272.2307740778633	2.0	CLOSE	1.711742763145594	4_1	9	baktérium	létfontosságú	2	no-good	1	1448	9	4	1	894	13	5	3	2.3	4.05	2.95	4.8	0.750643611
278.2480652600352	2.0	FILLER	1.455025636445498	4_1	37	gombnyomás	fölösleges	1	good		1163	10	3	1	1092	10	4	7	2.05	4.4	4.55	6.35	0.0
286.24747023127566	2.0	FILLER	1.3270685830211733	4_1	13	célpont	potenciális	1	good		3846	7	2	1	2486	11	5	2	4.55	5.8	4.7	6.4	0.0
290.2476730994531	2.0	CLOSE	1.2150722858787049	4_1	12	benzinkút	délutáni	2	no-good	1	1490	9	3	1	6707	8	4	5	1.6	2.65	3.5	2.7	0.792105377
296.25099147979927	2.0	FILLER	1.2756233137479285	4_1	14	családfő	becsületes	1	good		479	8	3	1	1099	10	4	6	2.65	5.8	4.7	6.65	0.0
302.26428241914255	2.0	REPEAT	1.0703678496938664	4_1	72	rémálom	szomorú	2	no-good	1	769	7	3	1	3745	7	3	3	5.8	4.8	4.45	5.5	1.0
308.2645979918743	2.0	CLOSE	1.4544149827270303	4_1	11	barlang	elhagyatott	2	good	1	1015	7	2	2	307	11	4	2	3.35	6.25	6.6	6.15	0.803201675
314.26390204131894	2.0	REPEAT	1.3104285257140873	4_1	73	repülőjegy	érvényes	2	no-good	1	590	10	4	0	10878	8	3	6	2.8	6.75	6.4	6.9	1.0
320.2811816968897	2.0	FILLER	0.9337461222603451	4_1	15	csarnok	hivatali	1	good		1997	7	2	5	4213	8	4	7	1.6	5.45	5.1	4.45	0.0
326.2805103364226	2.0	REPEAT	1.3657595402473817	4_1	74	sütemény	születésnapi	1	good	1	1032	8	3	3	731	12	5	2	2.65	6.75	6.7	6.6	1.0
332.28081489483884	2.0	DISTANT	1.4934010209399275	4_1	88	törmelék	életveszélyes	2	no-good	1	730	8	3	1	3907	13	5	3	4.75	5.8	6.2	6.4	0.657350659
338.2971201684122	2.0	FILLER	1.0291005690814927	4_1	16	császár	tudatos	1	good		1880	7	2	5	2350	7	3	6	2.1	3.9	3.25	4.75	0.0
350.2967285201157	2.0	DISTANT	1.0850919297663495	4_1	89	tudomány	genetikai	2	good	1	3986	8	3	5	1398	9	5	2	2.4	4.8	2.6	5.45	0.662602782
358.2971342564706	2.0	CLOSE	1.1651034461101517	4_1	14	boríték	érvénytelen	1	no-good	0	1364	7	3	3	1401	11	4	2	2.8	4.1	4.1	3.4	1.0
368.29664143025	2.0	CLOSE	1.2131017494102707	4_1	13	bölcsőde	környékbeli	2	good	0	1219	8	3	1	1283	11	4	2	1.5	6.15	6.3	6.45	0.7846326231999999
374.3009572457959	2.0	DISTANT	1.4015396465110823	4_1	90	tűzijáték	nagyszabású	1	good	1	1585	9	4	1	3070	11	4	1	2.9	6.2	6.9	6.6	1.0
380.3132399917813	2.0	REPEAT	1.2924664953752654	4_1	75	szabadidő	kellemes	1	no-good	1	1588	9	4	1	5875	8	3	8	3.6	4.9	5.65	6.15	1.0
388.3136564862944	2.0	REPEAT	1.4444557433598677	4_1	26	fejfájás	kellemetlen	1	good	1	1351	8	3	4	3486	11	4	1	5.85	5.5	5.25	6.7	1.0
398.3131631477736	2.0	REPEAT	1.012472038390115	4_1	27	folyadék	elegendő	1	good	0	1438	8	3	3	9296	8	4	1	2.65	4.85	5.45	6.5	1.0
404.3134759028762	2.0	FILLER	1.2604263868997805	4_1	17	csemege	temérdek	1	no-good		805	7	3	1	494	8	3	1	2.3	4.8	5.75	5.75	0.0
410.3137730330345	2.0	REPEAT	1.3644667679036502	4_1	28	gorilla	érzékeny	1	no-good	1	659	7	3	2	3895	8	3	3	3.1	4.0	4.3	4.9	1.0
420.31327918222814	2.0	CLOSE	1.2044603847316466	4_1	15	csecsemő	egészséges	1	good	1	2039	8	3	2	7076	10	4	8	2.6	6.5	6.55	6.6	1.0
424.3134812819626	2.0	REPEAT	1.220470321175526	4_1	29	hangszer	autentikus	1	good	1	1828	8	2	3	526	10	5	1	2.0	4.6	3.7	4.7	1.0
430.31379531779385	2.0	DISTANT	1.852471034304472	4_1	91	újságcikk	botrányos	1	good	0	503	9	3	0	1508	9	3	4	3.75	5.45	5.65	6.55	1.0
438.3131803096039	2.0	REPEAT	1.204476265818812	4_1	30	háziorvos	elégedetlen	1	good	1	2011	9	4	4	2000	11	5	3	4.1	5.6	5.2	5.6	1.0
442.3134031572263	2.0	DISTANT	1.39648792152002	4_1	92	útlezárás	helyszíni	1	no-good	1	1291	9	4	3	4087	9	3	7	3.75	6.6	6.45	6.5	1.0
450.3128081284667	2.0	FILLER	1.0205127390800044	4_1	18	diskurzus	társadalmi	1	good		476	9	3	1	23674	10	4	7	2.4	3.4	2.35	5.5	0.0
460.3132942948723	2.0	CLOSE	1.3485072923795087	4_1	16	csengőhang	többféle	1	no-good	0	2279	10	3	1	2956	8	3	1	2.25	4.55	3.55	5.8	1.0
466.3135998778744	2.0	REPEAT	1.2684253356710542	4_1	31	helyezés	végleges	1	good	1	5834	8	3	4	7802	8	3	3	2.95	4.45	3.65	5.2	1.0
474.313016375716	2.0	FILLER	1.3642188179219374	4_1	19	díszvendég	nagyvonalú	1	good		656	10	3	2	494	10	4	2	2.05	4.75	4.65	5.2	0.0
482.3294223149424	2.0	FILLER	1.347844897027244	4_1	20	dulakodás	szándékos	1	good		585	9	4	0	1215	9	3	7	5.55	5.9	5.6	5.85	0.0
488.32973839995975	2.0	REPEAT	1.3238754584017445	4_1	32	horgász	tradicionális	1	no-good	1	707	7	2	2	850	13	6	1	2.1	4.65	5.0	4.65	1.0
494.3300429583615	2.0	REPEAT	1.075619881390594	4_1	74	sütemény	születésnapi	2	no-good	1	1032	8	3	3	731	12	5	2	2.65	6.75	6.7	6.6	1.0
500.34630135710177	2.0	FILLER	1.1951906922477065	4_1	21	élettárs	passzív	1	no-good		2516	8	3	3	1448	7	2	5	4.45	3.8	3.8	4.3	0.0
508.3457419327314	2.0	CLOSE	1.4831963930337224	4_1	17	csillagász	figyelmes	1	good	0	606	10	3	4	1273	9	3	8	1.9	4.4	4.85	5.8	1.0
516.3491563680873	2.0	REPEAT	1.351734228344867	4_1	33	iránytű	hasznos	1	no-good	0	794	7	3	2	9089	7	2	7	1.75	5.45	6.15	6.3	1.0
526.3626547862514	2.0	CLOSE	1.0585746000288054	4_1	14	boríték	szavazási	2	good	0	1364	7	3	3	407	9	4	7	3.5	6.65	6.65	6.85	0.75406909
538.3622523797967	2.0	REPEAT	1.0345800590293948	4_1	75	szabadidő	kellemes	2	no-good	1	1588	9	4	1	5875	8	3	8	3.6	4.9	5.65	6.15	1.0
546.3626581161516	2.0	FILLER	1.0425910467020003	4_1	22	ellenőr	közömbös	1	no-good		1812	7	3	3	568	8	3	1	2.25	5.65	6.15	5.9	0.0
554.3630638525065	2.0	DISTANT	1.1303317893616622	4_1	90	tűzijáték	verhetetlen	2	no-good	1	1585	9	4	1	357	11	4	2	2.4	3.2	4.55	3.15	0.664982438
562.3794705601758	2.0	REPEAT	1.241921325578005	4_1	26	fejfájás	kellemetlen	2	good	1	1351	8	3	4	3486	11	4	1	5.85	5.5	5.25	6.7	1.0
568.3787856239214	2.0	FILLER	1.161942339851521	4_1	23	engedmény	felelőtlen	1	no-good		1190	9	3	2	1991	10	4	1	4.55	3.55	2.45	4.1	0.0
572.3789772216551	2.0	REPEAT	0.9296846603683662	4_1	27	folyadék	elegendő	2	good	0	1438	8	3	3	9296	8	4	1	2.65	4.85	5.45	6.5	1.0
578.3793009910587	2.0	REPEAT	1.273911229291116	4_1	29	hangszer	autentikus	2	good	1	1828	8	2	3	526	10	5	1	2.0	4.6	3.7	4.7	1.0
586.3786977656127	2.0	REPEAT	1.2819532107096163	4_1	28	gorilla	érzékeny	2	good	1	659	7	3	2	3895	8	3	3	3.1	4.0	4.3	4.9	1.0
594.3791152847116	2.0	CLOSE	1.1056797198252752	4_1	15	csecsemő	normális	2	no-good	1	2039	8	3	2	4470	8	3	4	2.95	4.65	4.75	4.45	0.7993261220000001
604.3956142051902	2.0	FILLER	1.3132825121283531	4_1	24	értékrend	szubjektív	1	good		2241	9	3	4	1070	10	3	1	1.85	4.35	1.65	5.9	0.0
614.396107543711	2.0	DISTANT	1.161036861303728	4_1	92	útlezárás	gyorsforgalmi	2	good	1	1291	9	4	3	882	13	4	3	2.8	5.9	5.45	6.2	0.620973349
626.411716866729	2.0	DISTANT	0.0	4_1	91	újságcikk	igazságtalan	2		0	503	9	3	0	1736	12	5	2	5.75	5.35	4.5	5.75	0.626544654
630.4119199910492	2.0	REPEAT	1.1766559178940952	4_1	30	háziorvos	elégedetlen	2	good	1	2011	9	4	4	2000	11	5	3	4.1	5.6	5.2	5.6	1.0
636.415234529195	2.0	FILLER	1.2852208740077913	4_1	25	értesítés	sokszoros	1	good		2230	9	4	4	516	9	3	3	3.5	4.9	4.55	6.0	0.0
648.4288331007119	2.0	REPEAT	0.9279969098424772	4_1	32	horgász	tradicionális	2	no-good	1	707	7	2	2	850	13	6	1	2.1	4.65	5.0	4.65	1.0
658.4283405306342	2.0	CLOSE	1.3759943934564944	4_1	16	csengőhang	változatos	2	no-good	0	2279	10	3	1	2172	10	4	6	2.55	4.0	4.4	5.35	0.843068182
666.428745498546	2.0	REPEAT	1.2480301679315744	4_1	31	helyezés	végleges	2	good	1	5834	8	3	4	7802	8	3	3	2.95	4.45	3.65	5.2	1.0
676.4322639294551	2.0	CLOSE	1.4685278968099738	4_1	17	csillagász	türelmes	2	no-good	0	606	10	3	4	495	8	3	7	2.2	4.5	4.55	5.3	0.7566338779999999
682.4455694691715	2.0	REPEAT	1.2473541968211066	4_1	33	iránytű	hasznos	2	no-good	0	794	7	3	2	9089	7	2	7	1.75	5.45	6.15	6.3	1.0
