onset	duration	trial_type	response_time	stim_list	itemno	noun	adjective	order	response	correctness	noun_freq	noun_char	noun_syll	noun_phon	adj_freq	adj_char	adj_syll	adj_phon	arousal	concreteness	imageability	meaningfulness	cosine
22.08307836065069	2.0	FILLER	1.8506175568581968	5_2	26	észrevétel	lényegtelen	1	good		1877	10	4	3	442	11	4	2	2.95	4.3	2.15	5.9	0.0
26.08330428203044	2.0	REPEAT	1.1223909858927072	5_2	59	műemlék	természeti	1	good	1	1457	7	3	1	3805	10	4	6	2.45	4.95	5.05	4.45	1.0
30.083468984350475	2.0	REPEAT	1.266632821152598	5_2	60	mutatvány	szánalmas	1	good	1	716	9	3	3	685	9	3	4	4.45	4.9	3.5	6.1	1.0
36.082762531783374	2.0	CLOSE	1.010644944064552	5_2	43	kolbász	tonnányi	1	no-good	0	867	7	2	2	533	8	3	1	2.6	6.05	5.95	6.15	1.0
42.08307733606489	2.0	FILLER	1.4826461899610877	5_2	27	felajánlás	tömeges	1	good		1792	10	4	4	3303	7	3	8	3.5	4.8	3.9	5.6	0.0
48.08340802143721	2.0	DISTANT	1.042492174077779	5_2	18	csomagolás	ízléses	1	good	0	1577	10	4	4	472	7	3	7	1.35	5.8	6.1	6.05	1.0
54.0997079159315	2.0	REPEAT	0.9939946408994728	5_2	61	művészet	vizuális	1	good	1	6299	8	3	1	1406	8	4	1	2.15	4.8	4.3	5.65	1.0
64.099215858143	2.0	CLOSE	1.4342746809525124	5_2	44	kollégium	főiskolai	1	no-good	1	3139	9	4	3	1294	9	5	2	2.5	6.6	6.2	6.45	1.0
74.09974121500272	2.0	FILLER	1.1941850603470812	5_2	28	felsorolás	tartalmi	1	no-good		1057	10	4	4	1984	8	3	5	1.4	4.15	3.95	6.0	0.0
80.09902759032775	2.0	FILLER	1.2340612083025917	5_2	29	fenyegetés	írásbeli	1	good		5210	10	4	5	2291	8	4	6	5.5	6.45	5.15	6.45	0.0
88.09943153365384	2.0	FILLER	0.9777656990372634	5_2	30	fertőzés	hosszútávú	1	good		3797	8	3	1	563	10	4	1	6.0	5.2	3.65	5.8	0.0
94.11572861053357	2.0	REPEAT	1.3216044618675369	5_2	62	nagymama	kedvenc	1	no-good	1	1874	8	3	1	9838	7	2	3	3.25	6.0	5.9	6.8	1.0
100.1160211300521	2.0	REPEAT	1.0253457147809968	5_2	63	napsütés	felhőtlen	1	good	1	3340	8	3	2	612	9	3	1	3.0	6.1	6.45	6.6	1.0
108.11644787043406	2.0	DISTANT	1.3771800964823342	5_2	19	diáklány	ártatlan	1	no-good	1	819	8	3	4	2035	8	3	5	2.8	5.3	5.35	6.6	1.0
114.13273393300553	2.0	FILLER	1.2889014457687151	5_2	31	focista	rugalmas	1	good		744	7	3	1	2314	8	3	1	1.85	4.0	3.7	4.0	0.0
122.1321829614826	2.0	REPEAT	1.1609433677622292	5_2	64	novella	tanulságos	1	good	1	925	7	3	1	805	10	4	6	2.45	5.4	3.05	6.5	1.0
130.13555077813362	2.0	CLOSE	1.165349090792006	5_2	45	kolostor	hajdani	1	good	1	1099	8	3	4	1367	7	3	7	2.3	4.65	5.65	5.75	1.0
138.14898490348423	2.0	CLOSE	1.272202730880963	5_2	46	költészet	mágikus	1	good	1	1207	9	3	4	454	7	3	1	2.6	3.0	3.15	3.85	1.0
148.14945518880268	2.0	FILLER	1.103813178899145	5_2	32	főhadnagy	harcias	1	no-good		1176	9	3	1	437	7	3	1	3.25	6.0	6.0	5.75	0.0
156.16587060545135	2.0	FILLER	1.2716120566219615	5_2	33	földrengés	sorozatos	1	good		4360	10	3	5	1199	9	4	5	5.8	6.1	5.0	6.05	0.0
166.16539519719663	2.0	REPEAT	0.0	5_2	65	olimpikon	legendás	1		1	644	9	4	2	3949	8	3	5	2.15	5.8	5.5	6.6	1.0
172.16870999148887	2.0	DISTANT	1.075984378123394	5_2	20	diktátor	kegyetlen	1	good	0	1821	8	3	4	1493	9	3	2	6.0	5.8	6.2	6.7	1.0
178.18196686332885	2.0	REPEAT	1.1187324427446583	5_2	66	oroszlán	nyugodt	1	good	1	1351	8	3	3	2967	7	2	2	2.1	5.9	6.5	6.35	1.0
190.1855757140147	2.0	FILLER	1.5075090682330483	5_2	34	forgatás	tökéletes	1	good		2380	8	3	5	5587	9	4	4	1.6	4.35	3.65	5.3	0.0
196.19891301591636	2.0	REPEAT	1.342335437919246	5_2	60	mutatvány	szánalmas	2	no-good	1	716	9	3	3	685	9	3	4	4.45	4.9	3.5	6.1	1.0
202.19820425802757	2.0	REPEAT	1.3821455000288552	5_2	59	műemlék	természeti	2	no-good	1	1457	7	3	1	3805	10	4	6	2.45	4.95	5.05	4.45	1.0
212.2017439491101	2.0	DISTANT	1.154685191879253	5_2	18	csomagolás	karakteres	2	good	0	1577	10	4	4	625	10	4	6	1.85	4.5	4.7	5.35	0.7101491090000001
216.2149319174896	2.0	CLOSE	1.5334946374387073	5_2	43	kolbász	méternyi	2	no-good	0	867	7	2	2	324	8	3	1	2.75	5.95	6.65	5.85	0.762132525
222.2152364759022	2.0	CLOSE	1.6454719797293365	5_2	44	kollégium	felsőoktatási	2	no-good	1	3139	9	4	3	5953	13	6	1	3.0	6.65	6.25	6.7	0.8090670109999999
226.215434221147	2.0	REPEAT	1.1812345399448532	5_2	61	művészet	vizuális	2	good	1	6299	8	3	1	1406	8	4	1	2.15	4.8	4.3	5.65	1.0
230.21862452814457	2.0	DISTANT	1.0740927348342666	5_2	21	díszlet	színpadi	1	good	1	1420	7	2	3	1542	8	3	5	2.1	5.9	6.35	6.75	1.0
238.2320148524086	2.0	REPEAT	1.300991825588426	5_2	62	nagymama	kedvenc	2	no-good	1	1874	8	3	1	9838	7	2	3	3.25	6.0	5.9	6.8	1.0
248.23151792783392	2.0	FILLER	1.2445698823248676	5_2	35	frontember	lendületes	1	good		588	10	3	0	483	10	4	8	1.6	4.6	5.6	5.6	0.0
260.2481756592497	2.0	FILLER	1.2121939655444294	5_2	36	fürdőszoba	keskeny	1	good		729	10	4	1	762	7	2	1	2.45	6.4	6.6	6.35	0.0
270.2516351764207	2.0	REPEAT	0.936735097959172	5_2	64	novella	tanulságos	2	good	1	925	7	3	1	805	10	4	6	2.45	5.4	3.05	6.5	1.0
274.26490024495433	2.0	DISTANT	1.6755100456866785	5_2	19	diáklány	törékeny	2	good	1	819	8	3	4	854	8	3	1	3.7	6.1	6.6	6.6	0.649407744
282.2652806227852	2.0	REPEAT	1.0115306993102422	5_2	63	napsütés	felhőtlen	2	good	1	3340	8	3	2	612	9	3	1	3.0	6.1	6.45	6.6	1.0
288.2645849283799	2.0	CLOSE	1.643487099041522	5_2	46	költészet	varázslatos	2	no-good	1	1207	9	3	4	651	11	4	5	2.4	3.15	3.5	5.4	0.770221233
292.2687508981144	2.0	REPEAT	1.2799875410273671	5_2	67	osztályzat	közepes	1	good	1	1028	10	3	3	4363	7	3	8	4.55	6.45	6.4	6.95	1.0
300.2811950165124	2.0	CLOSE	1.2828571523714345	5_2	45	kolostor	egykori	2	good	1	1099	8	3	4	20851	7	3	4	2.55	5.0	5.95	6.4	0.889039457
306.281461665214	2.0	REPEAT	0.8988827649918676	5_2	65	olimpikon	legendás	2	good	1	644	9	4	2	3949	8	3	5	2.15	5.8	5.5	6.6	1.0
316.281016738416	2.0	DISTANT	1.1950948933808831	5_2	20	diktátor	rosszindulatú	2	no-good	0	1821	8	3	4	2105	13	5	3	6.2	5.85	5.7	6.6	0.6793145540000001
326.2815216035415	2.0	FILLER	1.3066442145573092	5_2	37	gombnyomás	fölösleges	1	no-good		1163	10	3	1	1092	10	4	7	2.05	4.4	4.55	6.35	0.0
334.28093016083585	2.0	REPEAT	0.954916133730876	5_2	66	oroszlán	nyugodt	2	good	1	1351	8	3	3	2967	7	2	2	2.1	5.9	6.5	6.35	1.0
342.2813189915105	2.0	CLOSE	1.546922615267249	5_2	47	kommentár	terjedelmes	1	good	1	2449	9	3	2	699	11	4	5	2.2	4.4	4.0	5.3	1.0
350.2847295846623	2.0	REPEAT	1.087676705992635	5_2	68	ösztöndíj	tanulmányi	1	good	1	2344	9	3	1	1823	10	4	8	3.6	6.65	4.5	6.8	1.0
356.2980177063946	2.0	REPEAT	1.2982346626413346	5_2	69	pénztárca	ismeretlen	1	good	1	1902	9	3	3	17883	10	4	7	3.55	4.9	4.9	6.15	1.0
360.2972367151451	2.0	REPEAT	1.346274205541704	5_2	70	pisztoly	törvénytelen	1	good	0	1679	8	2	3	1475	12	4	3	4.75	4.9	4.9	5.3	1.0
368.2976424514964	2.0	FILLER	1.1860867266586863	5_2	38	gyűjtemény	sokszínű	1	good		3860	10	3	1	1038	8	3	1	2.15	4.4	5.1	5.65	0.0
378.3141503371007	2.0	REPEAT	1.4016126483184053	5_2	71	professzor	közgazdasági	1	good	1	6091	10	3	5	1411	12	5	4	1.9	6.5	5.5	6.65	1.0
384.3144548955133	2.0	DISTANT	1.0178214058214508	5_2	21	díszlet	kulturális	2	good	1	1420	7	2	3	24926	10	4	1	1.65	4.6	4.1	4.5	0.683287978
390.31772179037216	2.0	REPEAT	1.0703022761481409	5_2	72	rémálom	szomorú	1	no-good	1	769	7	3	1	3745	7	3	3	5.8	4.8	4.45	5.5	1.0
396.33107753483273	2.0	DISTANT	1.4010268408455886	5_2	22	díszterem	patinás	1	good	0	1123	9	3	1	802	7	3	4	2.3	5.2	5.55	5.05	1.0
406.3305921368592	2.0	REPEAT	1.432966795960965	5_2	73	repülőjegy	érvényes	1	good	0	590	10	4	0	10878	8	3	6	2.8	6.75	6.4	6.9	1.0
412.3338492981457	2.0	FILLER	1.405564735570806	5_2	39	gyulladás	fájdalmas	1	good		756	9	3	3	2001	9	3	6	5.0	5.85	4.6	6.55	0.0
424.3474473573733	2.0	CLOSE	1.064305369884096	5_2	48	legénység	katonai	1	good	1	1179	9	3	4	14642	7	4	3	4.35	6.0	5.9	6.15	1.0
432.3508538521783	2.0	DISTANT	1.2289720859043882	5_2	23	egyenruha	rendőri	1	good	1	1598	9	4	1	6998	7	3	1	3.4	6.75	6.65	6.9	1.0
440.36329617754745	2.0	REPEAT	1.103761437272624	5_2	74	sütemény	születésnapi	1	good	1	1032	8	3	3	731	12	5	2	2.65	6.75	6.7	6.6	1.0
448.3637016577559	2.0	FILLER	1.3514990856856457	5_2	40	gyűlölet	mélységes	1	good		2004	8	3	1	415	9	3	6	6.2	5.7	3.2	6.35	0.0
454.37997491299393	2.0	REPEAT	0.9589973189140436	5_2	67	osztályzat	közepes	2	good	1	1028	10	3	3	4363	7	3	8	4.55	6.45	6.4	6.95	1.0
464.3805120525976	2.0	CLOSE	0.9431236525051644	5_2	49	lépcsőház	emeletes	1	good	1	634	9	3	1	491	8	4	8	1.65	6.05	6.5	6.1	1.0
470.3838327382618	2.0	DISTANT	1.091686938543717	5_2	24	étterem	elegáns	1	good	1	4657	7	3	4	3281	7	3	1	2.55	6.1	6.75	6.9	1.0
478.3972356137128	2.0	REPEAT	1.110373095580144	5_2	75	szabadidő	kellemes	1	no-good	1	1588	9	4	1	5875	8	3	8	3.6	4.9	5.65	6.15	1.0
488.396742787485	2.0	CLOSE	1.278088213333831	5_2	47	kommentár	tartalmas	2	good	1	2449	9	3	2	883	9	3	7	1.65	3.6	2.9	5.2	0.767767847
500.4133679882725	2.0	FILLER	1.3096946654659405	5_2	41	hadjárat	szerencsétlen	1	no-good		1413	8	3	4	2074	13	4	3	4.7	5.2	4.25	5.85	0.0
506.41366153237686	2.0	REPEAT	0.8937165424395062	5_2	68	ösztöndíj	tanulmányi	2	good	1	2344	9	3	1	1823	10	4	8	3.6	6.65	4.5	6.8	1.0
514.41305036638	2.0	REPEAT	1.0939364187543106	5_2	70	pisztoly	törvénytelen	2	good	0	1679	8	2	3	1475	12	4	3	4.75	4.9	4.9	5.3	1.0
520.4133656829508	2.0	REPEAT	1.2538160093208717	5_2	69	pénztárca	ismeretlen	2	good	1	1902	9	3	3	17883	10	4	7	3.55	4.9	4.9	6.15	1.0
526.413632843949	2.0	FILLER	1.46943439993629	5_2	42	hátrány	mentális	1	no-good		7114	7	2	4	861	8	3	3	4.9	3.75	3.25	5.85	0.0
532.4169637754785	2.0	DISTANT	1.2103517585637746	5_2	25	fejedelem	történelmi	1	no-good	1	903	9	4	3	14910	10	4	7	1.85	5.25	5.15	6.2	1.0
538.4302685467483	2.0	CLOSE	1.2610839154476707	5_2	50	levéltár	régészeti	1	good	1	1665	8	3	3	1293	9	4	4	1.85	4.6	5.6	5.75	1.0
542.4294662953216	2.0	FILLER	1.493091083455511	5_2	43	havazás	folyamatos	1	good		3637	7	3	4	10275	10	4	6	3.85	6.45	6.8	6.9	0.0
550.4298771546091	2.0	FILLER	1.349084903151379	5_2	44	házastárs	eszméletlen	1	no-good		909	9	3	3	520	11	4	3	5.8	5.55	5.05	5.4	0.0
556.4461819158896	2.0	REPEAT	1.372435747522104	5_2	71	professzor	közgazdasági	2	good	1	6091	10	3	5	1411	12	5	4	1.9	6.5	5.5	6.65	1.0
560.4463681345333	2.0	REPEAT	1.0923793030415254	5_2	72	rémálom	szomorú	2	no-good	1	769	7	3	1	3745	7	3	3	5.8	4.8	4.45	5.5	1.0
566.4466888301868	2.0	REPEAT	1.1564423581585288	5_2	73	repülőjegy	érvényes	2	good	0	590	10	4	0	10878	8	3	6	2.8	6.75	6.4	6.9	1.0
574.4460950821631	2.0	DISTANT	1.5084803764766548	5_2	22	díszterem	miniszteri	2	no-good	0	1123	9	3	1	4544	10	4	7	2.6	6.6	5.9	5.45	0.636730134
580.4463934930536	2.0	FILLER	1.26046865110402	5_2	45	hazugság	kisebbik	1	good		3451	8	3	4	1351	8	3	4	4.65	3.05	2.4	5.7	0.0
592.4500069543828	2.0	CLOSE	1.4410482239691191	5_2	48	legénység	szárazföldi	2	no-good	1	1179	9	3	4	925	11	4	4	2.55	5.8	5.35	5.25	0.7674061059999999
600.4623767902413	2.0	FILLER	1.283792856225773	5_2	46	hercegnő	szigorú	1	good		1207	8	3	2	8605	7	3	6	2.45	5.35	5.4	6.4	0.0
606.462717465336	2.0	DISTANT	1.395763538697793	5_2	23	egyenruha	vasutas	2	good	1	1598	9	4	1	1481	7	3	6	1.35	6.25	6.8	6.75	0.63155067
614.4631242262767	2.0	REPEAT	1.131812317224103	5_2	74	sütemény	születésnapi	2	good	1	1032	8	3	3	731	12	5	2	2.65	6.75	6.7	6.6	1.0
618.4623227432894	2.0	CLOSE	1.4278292618400883	5_2	49	lépcsőház	földszinti	2	no-good	1	634	9	3	1	355	10	3	4	1.5	5.85	5.2	5.6	0.757668078
624.4626301193166	2.0	FILLER	1.2357197581077344	5_2	47	hetilap	közérdekű	1	good		3156	7	3	1	1687	9	4	4	2.55	6.0	6.0	5.75	0.0
630.4629441551551	2.0	DISTANT	1.1798408458198535	5_2	24	étterem	milliárdos	2	good	1	4657	7	3	4	7498	10	4	7	2.4	4.75	5.15	4.95	0.604082525
640.4794051659155	2.0	FILLER	1.363142233389226	5_2	48	hirdetés	releváns	1	good		4687	8	3	4	763	8	3	1	2.15	5.15	4.55	6.3	0.0
648.4798331870297	2.0	REPEAT	1.362992131431383	5_2	75	szabadidő	kellemes	2	no-good	1	1588	9	4	1	5875	8	3	8	3.6	4.9	5.65	6.15	1.0
654.4961622822448	2.0	FILLER	1.0107048823847435	5_2	49	irodaház	szemközti	1	good		942	8	4	3	638	9	3	4	1.45	6.65	6.3	6.6	0.0
664.4956230934695	2.0	FILLER	1.1144901412953914	5_2	50	játszma	belpolitikai	1	good		1655	7	2	1	2408	12	6	2	5.15	3.95	2.85	6.35	0.0
672.4990293321243	2.0	CLOSE	1.2551413122855593	5_2	50	levéltár	néprajzi	2	good	1	1665	8	3	3	881	8	3	3	2.1	5.7	4.9	5.95	0.86576128
684.512675034639	2.0	DISTANT	1.4018518893280998	5_2	25	fejedelem	gyarmati	2	good	1	903	9	4	3	862	8	3	3	2.75	4.75	3.35	4.8	0.65641886
