onset	duration	trial_type	response_time	stim_list	itemno	noun	adjective	jitter	response	counterbalance	noun_freq	noun_char	noun_syll	noun_phon	adj_freq	adj_char	adj_syll	adj_phon	arousal	concreteness	imageability	meaningfulness	cosine
24.05012624157098	2.0	BASELINE	1.4450360563969298	StimuliTable-7962-Mapping-Run8.xlsx	76	szakadék	iszonyatos	6	2	2	1478	8	3	4	452	10	4	6	5.1	4.75	5.85	5.65	1.0
34.049603447518166	2.0	DISTANT	1.7173308149031072	StimuliTable-7962-Mapping-Run8.xlsx	27	folyadék	aránytalan	8	1	2	1438	8	3	3	727	10	4	2	2.25	3.1	2.9	2.5	0.676598668
42.04999304563535	2.0	BASELINE	1.0850732692924794	StimuliTable-7962-Mapping-Run8.xlsx	52	matrica	fizetős	6	4	2	1479	7	3	2	2152	7	3	2	2.75	5.8	5.4	5.6	1.0
54.04957629604178	2.0	BASELINE	1.1173630380762916	StimuliTable-7962-Mapping-Run8.xlsx	94	vacsora	zártkörű	10	4	2	2517	7	3	1	562	8	3	1	2.45	5.85	5.4	6.9	1.0
64.05005247151348	2.0	CLOSE	1.765070800043759	StimuliTable-7962-Mapping-Run8.xlsx	71	professzor	jogtudományi	8	1	2	6091	10	3	5	382	12	5	3	1.8	6.2	5.45	6.55	0.774288118
72.0494215838371	2.0	CLOSE	1.4053849068004638	StimuliTable-7962-Mapping-Run8.xlsx	89	tudomány	építészeti	6	3	2	3986	8	3	5	1116	10	5	7	1.75	3.95	4.45	5.85	0.7951859240000001
82.0488813718548	2.0	DISTANT	1.6293917838083871	StimuliTable-7962-Mapping-Run8.xlsx	33	iránytű	funkcionális	8	2	2	794	7	3	2	570	12	5	1	1.75	4.9	4.85	4.9	0.6793020959999999
94.0495066243202	2.0	CLOSE	1.7253599684227083	StimuliTable-7962-Mapping-Run8.xlsx	51	magazin	kutatási	10	3	2	7307	7	3	2	3464	8	4	6	1.7	4.85	4.8	5.1	0.882873833
102.0488808595619	2.0	BASELINE	1.3094454105412296	StimuliTable-7962-Mapping-Run8.xlsx	54	menetrend	szokásos	6	4	2	4833	9	3	2	8246	8	3	6	1.7	5.4	4.45	6.65	1.0
114.0484328601524	2.0	CLOSE	0.9094019169460807	StimuliTable-7962-Mapping-Run8.xlsx	41	királynő	gyönyörű	10	4	2	2060	8	3	2	4450	8	3	6	2.95	5.7	6.7	6.6	0.846518397
122.0488070895044	2.0	DISTANT	1.2213657552747463	StimuliTable-7962-Mapping-Run8.xlsx	15	csecsemő	tevékeny	6	4	2	2039	8	3	2	403	8	3	2	2.4	4.65	4.65	4.15	0.655481756
132.04831989975355	2.0	DISTANT	1.0694434945689864	StimuliTable-7962-Mapping-Run8.xlsx	43	kolbász	szezonális	8	2	2	867	7	2	2	973	10	4	1	1.6	3.9	3.95	3.15	0.605840862
142.04880145429345	2.0	BASELINE	1.597427832777612	StimuliTable-7962-Mapping-Run8.xlsx	30	háziorvos	elégedetlen	8	1	2	2011	9	4	4	2000	11	5	3	4.1	5.6	5.2	5.6	1.0
154.04839495053966	2.0	BASELINE	1.2693744376010727	StimuliTable-7962-Mapping-Run8.xlsx	17	csillagász	figyelmes	10	1	2	606	10	3	4	1273	9	3	8	1.9	4.4	4.85	5.8	1.0
164.04887573664382	2.0	DISTANT	1.3252012091106735	StimuliTable-7962-Mapping-Run8.xlsx	25	fejedelem	gyarmati	8	3	2	903	9	4	3	862	8	3	3	2.75	4.75	3.35	4.8	0.65641886
172.04824664198895	2.0	CLOSE	1.3495358505861077	StimuliTable-7962-Mapping-Run8.xlsx	66	oroszlán	csendes	6	2	2	1351	8	3	3	2305	7	2	7	2.15	5.45	5.7	6.3	0.851599276
184.0488385954668	2.0	CLOSE	1.253183446922776	StimuliTable-7962-Mapping-Run8.xlsx	14	boríték	szavazási	10	2	2	1364	7	3	3	407	9	4	7	3.5	6.65	6.65	6.85	0.75406909
196.04841569836933	2.0	BASELINE	1.5894655333722767	StimuliTable-7962-Mapping-Run8.xlsx	38	kerékpár	elektromos	10	4	2	3466	8	3	3	4185	10	4	2	1.75	6.55	6.7	6.95	1.0
208.04797948167837	2.0	CLOSE	1.4211632462174748	StimuliTable-7962-Mapping-Run8.xlsx	58	műanyag	értelmetlen	10	1	2	3590	7	3	1	1912	11	4	2	3.0	3.65	3.75	2.75	0.908448935
218.06447810374084	2.0	DISTANT	0.8687894512913772	StimuliTable-7962-Mapping-Run8.xlsx	77	szélvihar	kíméletlen	8	3	2	490	9	3	0	564	10	4	2	5.5	5.75	6.05	6.5	0.6293716429999999
230.06804340035887	2.0	DISTANT	1.225336274914298	StimuliTable-7962-Mapping-Run8.xlsx	13	bölcsőde	lokális	10	4	2	1219	8	3	1	578	7	3	3	1.75	4.7	5.35	6.55	0.6315799952000001
240.0975478371911	2.0	CLOSE	1.6194589529804944	StimuliTable-7962-Mapping-Run8.xlsx	76	szakadék	rettenetes	8	1	2	1478	8	3	4	868	10	4	8	5.2	5.15	6.55	6.15	0.891412258
248.09788671839124	2.0	BASELINE	1.2112303129360953	StimuliTable-7962-Mapping-Run8.xlsx	69	pénztárca	ismeretlen	6	1	2	1902	9	3	3	17883	10	4	7	3.55	4.9	4.9	6.15	1.0
256.1142921032988	2.0	BASELINE	1.0107842602337769	StimuliTable-7962-Mapping-Run8.xlsx	26	fejfájás	kellemetlen	6	4	2	1351	8	3	4	3486	11	4	1	5.85	5.5	5.25	6.7	1.0
268.114849989357	2.0	CLOSE	1.0025286736272392	StimuliTable-7962-Mapping-Run8.xlsx	57	műalkotás	reneszánsz	10	4	2	784	9	4	1	1591	10	3	3	2.25	6.25	6.1	6.6	0.743859231
280.1304285348706	2.0	BASELINE	0.0	StimuliTable-7962-Mapping-Run8.xlsx	64	novella	tanulságos	10	0	2	925	7	3	1	805	10	4	6	2.45	5.4	3.05	6.5	1.0
290.13393081956747	2.0	DISTANT	0.8387273845437448	StimuliTable-7962-Mapping-Run8.xlsx	40	kesztyű	paraszti	8	4	2	891	7	2	1	347	8	3	4	1.6	3.7	4.35	3.15	0.61781317
300.1474512317145	2.0	DISTANT	0.9855182717947172	StimuliTable-7962-Mapping-Run8.xlsx	80	színdarab	társulati	8	4	2	571	9	3	1	342	9	4	7	2.45	5.8	5.8	5.1	0.6175254579999999
308.1478144467874	2.0	BASELINE	1.3372687609698914	StimuliTable-7962-Mapping-Run8.xlsx	91	újságcikk	botrányos	6	2	2	503	9	3	0	1508	9	3	4	3.75	5.45	5.65	6.55	1.0
320.1633804411504	2.0	CLOSE	1.6648759497584251	StimuliTable-7962-Mapping-Run8.xlsx	96	ventilátor	erőteljes	10	2	2	1165	10	4	3	3772	9	4	1	2.75	5.75	5.6	5.45	0.84082365
328.16377644291424	2.0	DISTANT	1.4486336274167115	StimuliTable-7962-Mapping-Run8.xlsx	41	királynő	példátlan	6	3	2	2060	8	3	2	2102	9	3	1	2.55	4.55	4.6	5.3	0.661574185
340.1803188659469	2.0	DISTANT	1.2881906689581228	StimuliTable-7962-Mapping-Run8.xlsx	94	vacsora	ügyészségi	10	1	2	2517	7	3	1	1538	10	4	4	2.2	4.95	4.9	4.5	0.6062234639999999
350.18382729814766	2.0	BASELINE	1.1967473039985634	StimuliTable-7962-Mapping-Run8.xlsx	29	hangszer	autentikus	8	4	2	1828	8	2	3	526	10	5	1	2.0	4.6	3.7	4.7	1.0
362.1963781975646	2.0	CLOSE	0.9836066539573948	StimuliTable-7962-Mapping-Run8.xlsx	82	találmány	újszerű	10	4	2	1346	9	3	4	1147	7	3	1	2.2	5.1	4.05	5.75	0.758028567
370.1997995401143	2.0	DISTANT	1.7961285064156982	StimuliTable-7962-Mapping-Run8.xlsx	31	helyezés	időszaki	6	1	2	5834	8	3	4	796	8	4	1	2.25	2.55	1.65	2.85	0.617949784
382.2133414685304	2.0	DISTANT	1.3589430697502394	StimuliTable-7962-Mapping-Run8.xlsx	53	mellény	kamionos	10	2	2	909	7	2	5	543	8	4	7	1.4	6.25	5.7	6.1	0.629222572
392.2168493884383	2.0	CLOSE	1.5073130972850777	StimuliTable-7962-Mapping-Run8.xlsx	78	szemüveg	ideális	8	4	2	1594	8	3	4	3414	7	4	1	1.9	5.3	5.0	5.5	0.84095335
404.2294353798607	2.0	CLOSE	1.782268956918415	StimuliTable-7962-Mapping-Run8.xlsx	16	csengőhang	változatos	10	2	2	2279	10	3	1	2172	10	4	6	2.55	4.0	4.4	5.35	0.843068182
414.22991923971495	2.0	BASELINE	1.294300007968559	StimuliTable-7962-Mapping-Run8.xlsx	27	folyadék	elegendő	8	3	2	1438	8	3	3	9296	8	4	1	2.65	4.85	5.45	6.5	1.0
422.2293044892394	2.0	BASELINE	1.0382869158311223	StimuliTable-7962-Mapping-Run8.xlsx	56	monitor	kijelzős	6	4	2	3644	7	3	3	489	8	3	2	1.25	6.0	6.15	5.15	1.0
430.23267921321167	2.0	DISTANT	1.106813151458482	StimuliTable-7962-Mapping-Run8.xlsx	89	tudomány	genetikai	6	4	2	3986	8	3	5	1398	9	5	2	2.4	4.8	2.6	5.45	0.662602782
440.2461714492965	2.0	DISTANT	1.8536366204825756	StimuliTable-7962-Mapping-Run8.xlsx	18	csomagolás	karakteres	8	1	2	1577	10	4	4	625	10	4	6	1.85	4.5	4.7	5.35	0.7101491090000001
450.2496432526132	2.0	CLOSE	0.9785362432521651	StimuliTable-7962-Mapping-Run8.xlsx	20	diktátor	szörnyű	8	4	2	1821	8	3	4	2251	7	2	4	6.3	5.9	6.4	6.55	0.8910186290000001
460.262134726152	2.0	DISTANT	1.4369689932645997	StimuliTable-7962-Mapping-Run8.xlsx	2	albérlet	hátrányos	8	2	2	547	8	3	1	5583	9	3	6	4.3	4.4	4.3	4.05	0.60664767
468.26251638374015	2.0	BASELINE	0.9327219639817486	StimuliTable-7962-Mapping-Run8.xlsx	44	kollégium	főiskolai	6	4	2	3139	9	4	3	1294	9	5	2	2.5	6.6	6.2	6.45	1.0
480.2791031200359	2.0	CLOSE	1.7882970976352226	StimuliTable-7962-Mapping-Run8.xlsx	42	kirándulás	tegnapi	10	1	2	1896	10	4	4	6241	7	3	8	2.15	6.7	5.15	6.1	0.839792311
490.2825331715503	2.0	BASELINE	1.6328397655452136	StimuliTable-7962-Mapping-Run8.xlsx	58	műanyag	felesleges	8	1	2	3590	7	3	1	4304	10	4	7	3.55	4.95	5.15	6.3	1.0
500.2950479543797	2.0	CLOSE	1.0117232915872592	StimuliTable-7962-Mapping-Run8.xlsx	77	szélvihar	váratlan	8	4	2	490	9	3	0	2782	8	3	8	4.2	6.1	5.9	6.65	0.850282848
510.2984967045522	2.0	DISTANT	1.000214138082811	StimuliTable-7962-Mapping-Run8.xlsx	52	matrica	kedvezményes	8	4	2	1479	7	3	2	3115	12	4	6	1.9	5.2	5.8	6.1	0.701929092
520.3120117376347	2.0	BASELINE	1.3070243182482957	StimuliTable-7962-Mapping-Run8.xlsx	57	műalkotás	korabeli	8	4	2	784	9	4	1	2056	8	4	3	2.0	5.45	4.75	6.2	1.0
528.3124118377345	2.0	CLOSE	1.57880832157025	StimuliTable-7962-Mapping-Run8.xlsx	37	képregény	élvezetes	6	4	2	1156	9	3	5	1070	9	4	8	2.6	5.5	6.0	6.3	0.852174282
540.327979625119	2.0	CLOSE	1.362313695386547	StimuliTable-7962-Mapping-Run8.xlsx	81	szőnyeg	mindennapi	10	1	2	1303	7	2	1	5073	10	4	3	1.35	3.9	5.0	4.05	0.75152117
552.3315313459971	2.0	BASELINE	0.958881902079156	StimuliTable-7962-Mapping-Run8.xlsx	13	bölcsőde	szomszédos	10	4	2	1219	8	3	1	5450	10	3	7	1.7	6.1	5.1	6.55	1.0
560.3449390538917	2.0	DISTANT	1.5217118341752212	StimuliTable-7962-Mapping-Run8.xlsx	68	ösztöndíj	partnerségi	6	2	2	2344	9	3	1	465	11	4	3	2.05	4.7	2.1	4.3	0.680144787
568.3453283958625	2.0	CLOSE	1.1854535693055368	StimuliTable-7962-Mapping-Run8.xlsx	39	készpénz	szerény	6	3	2	3600	8	2	3	3344	7	2	5	3.2	3.75	4.05	2.25	0.885355115
576.3617243033659	2.0	BASELINE	0.929068040837592	StimuliTable-7962-Mapping-Run8.xlsx	51	magazin	tudományos	6	4	2	7307	7	3	2	11632	10	4	5	1.8	6.3	6.45	6.15	1.0
588.3612547876874	2.0	DISTANT	1.336786181844218	StimuliTable-7962-Mapping-Run8.xlsx	96	ventilátor	nagyobbik	10	2	2	1165	10	4	3	1603	9	3	1	1.75	5.9	6.55	6.3	0.7033834459999999
596.37764813373	2.0	CLOSE	1.472460331304319	StimuliTable-7962-Mapping-Run8.xlsx	93	útmutatás	szellemi	6	3	2	703	9	4	2	6915	8	3	7	3.0	2.9	2.85	5.0	0.7834023237000001
608.3782147287529	2.0	BASELINE	1.256163962149003	StimuliTable-7962-Mapping-Run8.xlsx	83	tananyag	iskolai	10	4	2	1192	8	3	3	5542	7	4	3	3.9	5.65	4.85	6.9	1.0
620.3948439852938	2.0	DISTANT	1.295762089514028	StimuliTable-7962-Mapping-Run8.xlsx	70	pisztoly	ellenséges	10	2	2	1679	8	2	3	1644	10	4	8	4.95	4.35	4.55	4.35	0.6924996379999999
628.3942187328284	2.0	BASELINE	0.9035033861218836	StimuliTable-7962-Mapping-Run8.xlsx	80	színdarab	humoros	6	4	2	571	9	3	1	799	7	3	7	2.85	5.95	5.95	6.8	1.0
638.4107104389477	2.0	DISTANT	1.6471301526653406	StimuliTable-7962-Mapping-Run8.xlsx	30	háziorvos	részmunkaidős	8	2	2	2011	9	4	4	365	13	5	1	2.05	5.7	4.75	5.75	0.6547772288
646.4110954264361	2.0	CLOSE	1.950867861178267	StimuliTable-7962-Mapping-Run8.xlsx	65	olimpikon	világhírű	6	3	2	644	9	4	2	2877	9	4	4	2.25	6.3	5.75	6.9	0.8306809070000001
