onset	duration	trial_type	response_time	stim_list	itemno	noun	adjective	jitter	response	counterbalance	noun_freq	noun_char	noun_syll	noun_phon	adj_freq	adj_char	adj_syll	adj_phon	arousal	concreteness	imageability	meaningfulness	cosine
24.04602855560006	2.0	BASELINE	1.217784788193967	StimuliTable-9421-Mapping-Run8.xlsx	32	horgász	tradicionális	6	2	2	707	7	2	2	850	13	6	1	2.1	4.65	5.0	4.65	1.0
34.04551626484681	2.0	DISTANT	1.545821718209481	StimuliTable-9421-Mapping-Run8.xlsx	41	királynő	példátlan	8	3	2	2060	8	3	2	2102	9	3	1	2.55	4.55	4.6	5.3	0.661574185
42.04884871618924	2.0	BASELINE	1.134437644352147	StimuliTable-9421-Mapping-Run8.xlsx	66	oroszlán	nyugodt	6	3	2	1351	8	3	3	2967	7	2	2	2.1	5.9	6.5	6.35	1.0
54.06242800714245	2.0	BASELINE	1.28907824293492	StimuliTable-9421-Mapping-Run8.xlsx	91	újságcikk	botrányos	10	4	2	503	9	3	0	1508	9	3	4	3.75	5.45	5.65	6.55	1.0
64.06188472279973	2.0	CLOSE	1.3611590885629994	StimuliTable-9421-Mapping-Run8.xlsx	92	útlezárás	félpályás	8	2	2	1291	9	4	3	1206	9	3	2	2.95	6.3	6.3	6.3	0.78665024
72.06224844923418	2.0	CLOSE	1.2571599676557526	StimuliTable-9421-Mapping-Run8.xlsx	85	távirat	kulturált	6	2	2	635	7	3	2	578	9	3	1	1.7	3.45	2.2	3.7	0.7990051509999999
82.06571563304169	2.0	DISTANT	1.2697543796384707	StimuliTable-9421-Mapping-Run8.xlsx	79	szerszám	illegális	8	2	2	812	8	2	4	5833	9	4	1	3.8	4.1	3.65	5.05	0.606139541
94.07826726874556	2.0	CLOSE	1.8724764877733835	StimuliTable-9421-Mapping-Run8.xlsx	36	kastély	páratlan	10	3	2	2771	7	2	4	1654	8	3	8	3.15	4.3	4.8	4.95	0.825480223
102.0815974147772	2.0	BASELINE	1.757047647904983	StimuliTable-9421-Mapping-Run8.xlsx	58	műanyag	felesleges	6	4	2	3590	7	3	1	4304	10	4	7	3.55	4.95	5.15	6.3	1.0
114.0951797794769	2.0	CLOSE	1.0395442354129043	StimuliTable-9421-Mapping-Run8.xlsx	17	csillagász	türelmes	10	2	2	606	10	3	4	495	8	3	7	2.2	4.5	4.55	5.3	0.7566338779999999
122.09849737438344	2.0	DISTANT	1.140341026832175	StimuliTable-9421-Mapping-Run8.xlsx	90	tűzijáték	verhetetlen	6	2	2	1585	9	4	1	357	11	4	2	2.4	3.2	4.55	3.15	0.664982438
132.1120005901612	2.0	DISTANT	1.4631356855861668	StimuliTable-9421-Mapping-Run8.xlsx	31	helyezés	időszaki	8	1	2	5834	8	3	4	796	8	4	1	2.25	2.55	1.65	2.85	0.617949784
142.11445651202305	2.0	BASELINE	1.5877148067156668	StimuliTable-9421-Mapping-Run8.xlsx	67	osztályzat	közepes	8	3	2	1028	10	3	3	4363	7	3	8	4.55	6.45	6.4	6.95	1.0
154.12799405127953	2.0	BASELINE	1.5104329292298644	StimuliTable-9421-Mapping-Run8.xlsx	82	találmány	forradalmi	10	4	2	1346	9	3	4	2505	10	4	3	2.9	4.5	4.35	6.45	1.0
164.127450510794	2.0	DISTANT	1.222482238241355	StimuliTable-9421-Mapping-Run8.xlsx	70	pisztoly	ellenséges	8	4	2	1679	8	2	3	1644	10	4	8	4.95	4.35	4.55	4.35	0.6924996379999999
172.1278147495177	2.0	CLOSE	1.68648267061144	StimuliTable-9421-Mapping-Run8.xlsx	73	repülőjegy	hatályos	6	2	2	590	10	4	0	4539	8	3	2	2.8	3.75	3.4	3.7	0.8210387229999999
184.12736137220415	2.0	CLOSE	1.47850953103989	StimuliTable-9421-Mapping-Run8.xlsx	21	díszlet	művészi	10	4	2	1420	7	2	3	2366	7	3	1	1.7	5.7	5.8	6.05	0.82010299
196.127908242579	2.0	BASELINE	1.0701958718054811	StimuliTable-9421-Mapping-Run8.xlsx	89	tudomány	mérnöki	10	4	2	3986	8	3	5	877	7	3	6	1.7	4.75	3.4	6.0	1.0
208.1274499985011	2.0	CLOSE	1.1824428738145798	StimuliTable-9421-Mapping-Run8.xlsx	27	folyadék	optimális	10	2	2	1438	8	3	3	1679	9	4	2	1.8	3.5	3.45	3.25	0.841039181
218.12790542497896	2.0	DISTANT	1.6462447935264208	StimuliTable-9421-Mapping-Run8.xlsx	46	költészet	farsangi	8	3	2	1207	9	3	4	425	8	3	2	2.1	3.05	2.5	4.1	0.605011106
230.1274579390083	2.0	DISTANT	1.2784920107005746	StimuliTable-9421-Mapping-Run8.xlsx	7	ásványvíz	nagysikerű	10	2	2	963	9	3	1	627	10	4	1	1.35	4.75	4.35	5.75	0.66301918
240.1269138862299	2.0	CLOSE	1.1022194228389708	StimuliTable-9421-Mapping-Run8.xlsx	88	törmelék	bontási	8	4	2	730	8	3	1	388	7	3	8	2.1	6.2	5.95	6.35	0.8136036990000001
248.14327875814703	2.0	BASELINE	1.1818778171218582	StimuliTable-9421-Mapping-Run8.xlsx	24	étterem	elegáns	6	4	2	4657	7	3	4	3281	7	3	1	2.55	6.1	6.75	6.9	1.0
256.1436391546922	2.0	BASELINE	1.133587753996835	StimuliTable-9421-Mapping-Run8.xlsx	44	kollégium	főiskolai	6	4	2	3139	9	4	3	1294	9	5	2	2.5	6.6	6.2	6.45	1.0
268.14319064413576	2.0	CLOSE	1.1418095082699438	StimuliTable-9421-Mapping-Run8.xlsx	10	barátnő	tizenéves	10	3	2	3479	7	3	1	940	9	4	2	3.85	5.45	5.9	6.2	0.8318079709999999
280.14373725836776	2.0	BASELINE	1.2776080530056788	StimuliTable-9421-Mapping-Run8.xlsx	17	csillagász	figyelmes	10	2	2	606	10	3	4	1273	9	3	8	1.9	4.4	4.85	5.8	1.0
290.16019383032835	2.0	DISTANT	1.6211399852400064	StimuliTable-9421-Mapping-Run8.xlsx	6	áruházlánc	kockázatos	8	2	2	935	10	4	2	2073	10	4	4	3.05	2.95	2.7	3.7	0.71600765
300.1596461915178	2.0	DISTANT	1.628891968895914	StimuliTable-9421-Mapping-Run8.xlsx	78	szemüveg	elsődleges	8	1	2	1594	8	3	4	6398	10	4	1	2.3	4.25	3.75	3.75	0.657139182
308.1760251514279	2.0	BASELINE	1.4525025787443155	StimuliTable-9421-Mapping-Run8.xlsx	33	iránytű	hasznos	6	4	2	794	7	3	2	9089	7	2	7	1.75	5.45	6.15	6.3	1.0
320.1765617759884	2.0	CLOSE	1.140223712245643	StimuliTable-9421-Mapping-Run8.xlsx	42	kirándulás	tegnapi	10	4	2	1896	10	4	4	6241	7	3	8	2.15	6.7	5.15	6.1	0.839792311
328.1929012895125	2.0	DISTANT	1.7638470269048412	StimuliTable-9421-Mapping-Run8.xlsx	4	alkohol	szabványos	6	2	2	3138	7	3	2	1426	10	3	2	1.9	2.9	3.45	2.95	0.640375018
340.19246891612056	2.0	DISTANT	1.571572781274881	StimuliTable-9421-Mapping-Run8.xlsx	91	újságcikk	igazságtalan	10	4	2	503	9	3	0	1736	12	5	2	5.75	5.35	4.5	5.75	0.626544654
350.2089308671312	2.0	BASELINE	1.1791701043512148	StimuliTable-9421-Mapping-Run8.xlsx	31	helyezés	végleges	8	4	2	5834	8	3	4	7802	8	3	3	2.95	4.45	3.65	5.2	1.0
362.2124782244428	2.0	CLOSE	1.567760569643724	StimuliTable-9421-Mapping-Run8.xlsx	1	akadály	reménytelen	10	4	2	6030	7	3	2	1273	11	4	4	4.8	3.9	2.9	4.5	0.8418771620000001
370.2258377426624	2.0	DISTANT	1.6425514333532192	StimuliTable-9421-Mapping-Run8.xlsx	36	kastély	speciális	6	2	2	2771	7	2	4	9094	9	4	1	2.5	4.05	4.8	4.3	0.7096855040000001
382.2283897190428	2.0	DISTANT	1.4470597456529504	StimuliTable-9421-Mapping-Run8.xlsx	2	albérlet	hátrányos	10	1	2	547	8	3	1	5583	9	3	6	4.3	4.4	4.3	4.05	0.60664767
392.2418470847988	2.0	CLOSE	1.2338223063197802	StimuliTable-9421-Mapping-Run8.xlsx	77	szélvihar	váratlan	8	4	2	490	9	3	0	2782	8	3	8	4.2	6.1	5.9	6.65	0.850282848
404.2453939298175	2.0	CLOSE	1.4941423394702724	StimuliTable-9421-Mapping-Run8.xlsx	90	tűzijáték	nevezetes	10	2	2	1585	9	4	1	817	9	4	5	2.8	4.0	5.05	3.5	0.772080302
414.25885795535214	2.0	BASELINE	1.401194610803941	StimuliTable-9421-Mapping-Run8.xlsx	7	ásványvíz	minőségi	8	4	2	963	9	3	1	4832	8	4	2	1.85	6.05	5.25	6.4	1.0
422.2621778555658	2.0	BASELINE	1.2696616550128963	StimuliTable-9421-Mapping-Run8.xlsx	38	kerékpár	elektromos	6	4	2	3466	8	3	3	4185	10	4	2	1.75	6.55	6.7	6.95	1.0
430.2745799023724	2.0	DISTANT	1.648532940169389	StimuliTable-9421-Mapping-Run8.xlsx	80	színdarab	társulati	6	2	2	571	9	3	1	342	9	4	7	2.45	5.8	5.8	5.1	0.6175254579999999
440.2750358411431	2.0	DISTANT	0.9603074564183772	StimuliTable-9421-Mapping-Run8.xlsx	93	útmutatás	lelkiismereti	8	4	2	703	9	4	2	476	13	6	6	3.5	3.7	2.5	5.05	0.6710424423
450.2914924131037	2.0	CLOSE	1.2238579950535495	StimuliTable-9421-Mapping-Run8.xlsx	89	tudomány	építészeti	8	4	2	3986	8	3	5	1116	10	5	7	1.75	3.95	4.45	5.85	0.7951859240000001
460.291948095728	2.0	DISTANT	1.583593683764775	StimuliTable-9421-Mapping-Run8.xlsx	29	hangszer	vezérkari	8	2	2	1828	8	2	3	996	9	4	6	1.6	4.65	4.05	4.85	0.6304627660000001
468.3073191235853	2.0	BASELINE	0.9031893429200863	StimuliTable-9421-Mapping-Run8.xlsx	41	királynő	szépséges	6	4	2	2060	8	3	2	414	9	3	8	2.6	5.15	6.55	6.7	1.0
480.3078603587637	2.0	CLOSE	1.062971547627967	StimuliTable-9421-Mapping-Run8.xlsx	66	oroszlán	csendes	10	4	2	1351	8	3	3	2305	7	2	7	2.15	5.45	5.7	6.3	0.851599276
490.32431334468856	2.0	BASELINE	0.0	StimuliTable-9421-Mapping-Run8.xlsx	73	repülőjegy	érvényes	8	0	2	590	10	4	0	10878	8	3	6	2.8	6.75	6.4	6.9	1.0
500.3247726133486	2.0	CLOSE	1.1022519533034938	StimuliTable-9421-Mapping-Run8.xlsx	32	horgász	hagyományos	8	2	2	707	7	2	2	15070	11	4	6	1.3	4.15	5.5	4.8	0.8027049303
510.34022407085286	2.0	DISTANT	1.477807436567673	StimuliTable-9421-Mapping-Run8.xlsx	9	baktérium	szabadtéri	8	1	2	1448	9	4	1	2682	10	4	5	3.7	3.25	2.6	3.2	0.6112335320000001
520.3406848763843	2.0	BASELINE	1.725638589632581	StimuliTable-9421-Mapping-Run8.xlsx	70	pisztoly	törvénytelen	8	2	2	1679	8	2	3	1475	12	4	3	4.75	4.9	4.9	5.3	1.0
528.3570505167372	2.0	CLOSE	1.829202263405023	StimuliTable-9421-Mapping-Run8.xlsx	67	osztályzat	átlagos	6	2	2	1028	10	3	3	10804	7	3	7	3.35	5.85	5.35	6.5	0.816440403
540.35760763293	2.0	CLOSE	1.3889180752303218	StimuliTable-9421-Mapping-Run8.xlsx	94	vacsora	meghívásos	10	4	2	2517	7	3	1	352	10	4	5	2.1	5.8	4.1	6.45	0.7889098529999999
552.3731080142024	2.0	BASELINE	0.0	StimuliTable-9421-Mapping-Run8.xlsx	79	szerszám	trükkös	10	0	2	812	8	2	4	689	7	2	7	1.7	3.15	3.55	4.15	1.0
560.3735042710978	2.0	DISTANT	1.0602471854108444	StimuliTable-9421-Mapping-Run8.xlsx	20	diktátor	rosszindulatú	6	4	2	1821	8	3	4	2105	13	5	3	6.2	5.85	5.7	6.6	0.6793145540000001
568.3898696553042	2.0	CLOSE	1.0518330659579078	StimuliTable-9421-Mapping-Run8.xlsx	46	költészet	varázslatos	6	4	2	1207	9	3	4	651	11	4	5	2.4	3.15	3.5	5.4	0.770221233
576.3902392730815	2.0	BASELINE	1.4676092645750032	StimuliTable-9421-Mapping-Run8.xlsx	8	aszfalt	hibátlan	6	4	2	977	7	2	4	863	8	3	1	1.95	6.3	6.7	6.65	1.0
588.3897958854359	2.0	DISTANT	1.803859239920712	StimuliTable-9421-Mapping-Run8.xlsx	76	szakadék	kedvezőtlen	10	2	2	1478	8	3	4	3202	11	4	2	3.95	2.85	3.3	2.35	0.659476936
596.3901455238738	2.0	CLOSE	0.0	StimuliTable-9421-Mapping-Run8.xlsx	81	szőnyeg	mindennapi	6	0	2	1303	7	2	1	5073	10	4	3	1.35	3.9	5.0	4.05	0.75152117
608.389692914996	2.0	BASELINE	1.2358609673647152	StimuliTable-9421-Mapping-Run8.xlsx	39	készpénz	csekély	10	4	2	3600	8	2	3	3258	7	2	2	4.95	4.5	5.7	6.15	1.0
620.3892187899037	2.0	DISTANT	1.5876359139401757	StimuliTable-9421-Mapping-Run8.xlsx	68	ösztöndíj	partnerségi	10	1	2	2344	9	3	1	465	11	4	3	2.05	4.7	2.1	4.3	0.680144787
628.4056049218852	2.0	BASELINE	1.37921272694075	StimuliTable-9421-Mapping-Run8.xlsx	18	csomagolás	ízléses	6	4	2	1577	10	4	4	472	7	3	7	1.35	5.8	6.1	6.05	1.0
638.406075973231	2.0	DISTANT	1.2189374423833217	StimuliTable-9421-Mapping-Run8.xlsx	42	kirándulás	mielőbbi	8	4	2	1896	10	4	4	1499	8	4	1	2.05	3.85	3.35	5.25	0.63326329
646.4054261324127	2.0	CLOSE	1.44322191948595	StimuliTable-9421-Mapping-Run8.xlsx	44	kollégium	felsőoktatási	6	4	2	3139	9	4	3	5953	13	6	1	3.0	6.65	6.25	6.7	0.8090670109999999
