onset	duration	trial_type	response_time	stim_list	itemno	noun	adjective	jitter	response	counterbalance	noun_freq	noun_char	noun_syll	noun_phon	adj_freq	adj_char	adj_syll	adj_phon	arousal	concreteness	imageability	meaningfulness	cosine
24.03706141828297	2.0	BASELINE	0.9442776226533168	StimuliTable-6275-Mapping-Run5.xlsx	15	csecsemő	egészséges	6	4	1	2039	8	3	2	7076	10	4	8	2.6	6.5	6.55	6.6	1.0
34.04952212237913	2.0	BASELINE	1.04372145419984	StimuliTable-6275-Mapping-Run5.xlsx	13	bölcsőde	szomszédos	8	3	1	1219	8	3	1	5450	10	3	7	1.7	6.1	5.1	6.55	1.0
44.0659733152861	2.0	CLOSE	1.4912791464594193	StimuliTable-6275-Mapping-Run5.xlsx	1	akadály	reménytelen	8	1	1	6030	7	3	2	1273	11	4	4	4.8	3.9	2.9	4.5	0.8418771620000001
56.06952553935844	2.0	BASELINE	1.1118704683067335	StimuliTable-6275-Mapping-Run5.xlsx	2	albérlet	szegényes	10	2	1	547	8	3	1	439	9	3	7	4.5	5.55	6.5	6.05	1.0
66.08197727836887	2.0	CLOSE	1.2106326970097143	StimuliTable-6275-Mapping-Run5.xlsx	92	útlezárás	félpályás	8	4	1	1291	9	4	3	1206	9	3	2	2.95	6.3	6.3	6.3	0.78665024
74.08234689614619	2.0	CLOSE	1.2023568960612463	StimuliTable-6275-Mapping-Run5.xlsx	76	szakadék	rettenetes	6	2	1	1478	8	3	4	868	10	4	8	5.2	5.15	6.55	6.15	0.891412258
82.09870690129901	2.0	BASELINE	1.2739981962258753	StimuliTable-6275-Mapping-Run5.xlsx	93	útmutatás	erkölcsi	6	3	1	703	9	4	2	4377	8	3	7	3.2	4.1	2.7	6.3	1.0
94.09925428396672	2.0	DISTANT	1.3616731723304838	StimuliTable-6275-Mapping-Run5.xlsx	43	kolbász	szezonális	10	1	1	867	7	2	2	973	10	4	1	1.6	3.9	3.95	3.15	0.605840862
106.11480205213591	2.0	CLOSE	1.2413330010276695	StimuliTable-6275-Mapping-Run5.xlsx	91	újságcikk	döbbenetes	10	3	1	503	9	3	0	999	10	4	6	4.35	4.9	4.45	6.6	0.7505655290000001
114.11517192605606	2.0	BASELINE	1.0329720573572558	StimuliTable-6275-Mapping-Run5.xlsx	80	színdarab	humoros	6	4	1	571	9	3	1	799	7	3	7	2.85	5.95	5.95	6.8	1.0
122.13153679797324	2.0	DISTANT	1.296640935157484	StimuliTable-6275-Mapping-Run5.xlsx	56	monitor	digitális	6	3	1	3644	7	3	3	11798	9	4	1	1.65	6.1	6.45	5.5	0.7256274220000001
130.13191128251128	2.0	CLOSE	1.2083307185130252	StimuliTable-6275-Mapping-Run5.xlsx	58	műanyag	értelmetlen	6	1	1	3590	7	3	1	1912	11	4	2	3.0	3.65	3.75	2.75	0.908448935
142.13144356105477	2.0	BASELINE	1.1767039366750396	StimuliTable-6275-Mapping-Run5.xlsx	3	alkatrész	műszaki	10	3	1	2625	9	3	2	11955	7	3	1	1.6	5.9	5.6	6.45	1.0
154.13199017528677	2.0	CLOSE	1.2803785213909578	StimuliTable-6275-Mapping-Run5.xlsx	81	szőnyeg	mindennapi	10	2	1	1303	7	2	1	5073	10	4	3	1.35	3.9	5.0	4.05	0.75152117
162.1483560717861	2.0	BASELINE	1.3759568630703145	StimuliTable-6275-Mapping-Run5.xlsx	30	háziorvos	elégedetlen	6	4	1	2011	9	4	4	2000	11	5	3	4.1	5.6	5.2	5.6	1.0
170.147725185725	2.0	DISTANT	1.2076988078733848	StimuliTable-6275-Mapping-Run5.xlsx	32	horgász	járatos	6	1	1	707	7	2	2	317	7	3	6	1.45	4.9	3.05	5.0	0.6454380751
182.14727232070072	2.0	CLOSE	1.503991897607193	StimuliTable-6275-Mapping-Run5.xlsx	38	kerékpár	intelligens	10	2	1	3466	8	3	3	2053	11	4	1	1.9	3.15	2.8	3.4	0.787231982
194.14781586118625	2.0	BASELINE	0.7917522725874733	StimuliTable-6275-Mapping-Run5.xlsx	41	királynő	szépséges	10	4	1	2060	8	3	2	414	9	3	8	2.6	5.15	6.55	6.7	1.0
204.16427064012896	2.0	BASELINE	0.9752986206840432	StimuliTable-6275-Mapping-Run5.xlsx	78	szemüveg	kényelmes	8	4	1	1594	8	3	4	3437	9	3	8	2.15	6.1	6.05	6.7	1.0
214.1647260666068	2.0	DISTANT	1.09500227072931	StimuliTable-6275-Mapping-Run5.xlsx	50	levéltár	doktori	8	3	1	1665	8	3	3	1808	7	3	7	1.8	5.65	4.25	5.15	0.677691638
222.18011348777145	2.0	DISTANT	1.166598489307944	StimuliTable-6275-Mapping-Run5.xlsx	19	diáklány	törékeny	6	1	1	819	8	3	4	854	8	3	1	3.7	6.1	6.6	6.6	0.649407744
230.18045621028432	2.0	BASELINE	1.238657818725187	StimuliTable-6275-Mapping-Run5.xlsx	17	csillagász	figyelmes	6	2	1	606	10	3	4	1273	9	3	8	1.9	4.4	4.85	5.8	1.0
242.1800184578351	2.0	DISTANT	1.0546560441471229	StimuliTable-6275-Mapping-Run5.xlsx	40	kesztyű	paraszti	10	1	1	891	7	2	1	347	8	3	4	1.6	3.7	4.35	3.15	0.61781317
254.1805504717813	2.0	CLOSE	1.1263862267551303	StimuliTable-6275-Mapping-Run5.xlsx	31	helyezés	jogerős	10	1	1	5834	8	3	4	4058	7	3	1	2.55	2.65	1.5	3.3	0.78364414
262.19692046660566	2.0	CLOSE	1.4379501915100263	StimuliTable-6275-Mapping-Run5.xlsx	52	matrica	ingyenes	6	2	1	1479	7	3	2	13952	8	3	1	2.65	6.2	4.8	6.5	0.863539815
272.19738485816924	2.0	BASELINE	0.9737240950562408	StimuliTable-6275-Mapping-Run5.xlsx	26	fejfájás	kellemetlen	8	4	1	1351	8	3	4	3486	11	4	1	5.85	5.5	5.25	6.7	1.0
284.1969091962092	2.0	CLOSE	1.1980034492553386	StimuliTable-6275-Mapping-Run5.xlsx	89	tudomány	építészeti	10	3	1	3986	8	3	5	1116	10	5	7	1.75	3.95	4.45	5.85	0.7951859240000001
296.1994657832038	2.0	DISTANT	1.322486003573431	StimuliTable-6275-Mapping-Run5.xlsx	77	szélvihar	kíméletlen	10	3	1	490	9	3	0	564	10	4	2	5.5	5.75	6.05	6.5	0.6293716429999999
306.2129264788491	2.0	BASELINE	1.2213103731446608	StimuliTable-6275-Mapping-Run5.xlsx	70	pisztoly	törvénytelen	8	1	1	1679	8	2	3	1475	12	4	3	4.75	4.9	4.9	5.3	1.0
318.2164856188465	2.0	DISTANT	1.1696458508413343	StimuliTable-6275-Mapping-Run5.xlsx	44	kollégium	közüzemi	10	3	1	3139	9	4	3	1019	8	4	4	2.75	4.6	4.35	3.9	0.6578273179999999
330.22897603580714	2.0	DISTANT	1.3646372866205638	StimuliTable-6275-Mapping-Run5.xlsx	20	diktátor	rosszindulatú	10	4	1	1821	8	3	4	2105	13	5	3	6.2	5.85	5.7	6.6	0.6793145540000001
340.2294719332531	2.0	BASELINE	1.2286596962694605	StimuliTable-6275-Mapping-Run5.xlsx	32	horgász	tradicionális	8	3	1	707	7	2	2	850	13	6	1	2.1	4.65	5.0	4.65	1.0
350.2299322264953	2.0	DISTANT	1.2764200507517671	StimuliTable-6275-Mapping-Run5.xlsx	27	folyadék	aránytalan	8	1	1	1438	8	3	3	727	10	4	2	2.25	3.1	2.9	2.5	0.676598668
358.2322923499887	2.0	DISTANT	1.3049987026242889	StimuliTable-6275-Mapping-Run5.xlsx	58	műanyag	nemkívánatos	6	1	1	3590	7	3	1	888	12	5	1	3.4	4.9	5.1	4.9	0.7246280909999999
368.2457492034519	2.0	BASELINE	1.659980333159183	StimuliTable-6275-Mapping-Run5.xlsx	56	monitor	kijelzős	8	3	1	3644	7	3	3	489	8	3	2	1.25	6.0	6.15	5.15	1.0
376.2491257117945	2.0	DISTANT	1.1765651058776712	StimuliTable-6275-Mapping-Run5.xlsx	38	kerékpár	hardveres	6	1	1	3466	8	3	3	1550	9	3	5	1.65	2.65	1.5	2.4	0.6436905860000001
386.26257001413614	2.0	BASELINE	1.2033274308887485	StimuliTable-6275-Mapping-Run5.xlsx	33	iránytű	hasznos	8	3	1	794	7	3	2	9089	7	2	7	1.75	5.45	6.15	6.3	1.0
398.26611685915486	2.0	DISTANT	1.4636203126356122	StimuliTable-6275-Mapping-Run5.xlsx	88	törmelék	életveszélyes	10	3	1	730	8	3	1	3907	13	5	3	4.75	5.8	6.2	6.4	0.657350659
408.278589089794	2.0	CLOSE	1.4266324080745107	StimuliTable-6275-Mapping-Run5.xlsx	7	ásványvíz	színvonalas	8	2	1	963	9	3	1	1782	11	4	5	1.5	3.65	3.15	3.4	0.7986723179999999
416.2819381905829	2.0	BASELINE	1.327152203888545	StimuliTable-6275-Mapping-Run5.xlsx	51	magazin	tudományos	6	4	1	7307	7	3	2	11632	10	4	5	1.8	6.3	6.45	6.15	1.0
428.29549058627526	2.0	CLOSE	1.4819633952865845	StimuliTable-6275-Mapping-Run5.xlsx	54	menetrend	változatlan	10	3	1	4833	9	3	2	3262	11	4	2	1.8	6.25	4.95	7.0	0.812076867
436.2988555680749	2.0	CLOSE	1.206479812033649	StimuliTable-6275-Mapping-Run5.xlsx	30	háziorvos	türelmetlen	6	3	1	2011	9	4	4	480	11	4	1	4.55	6.25	5.95	6.6	0.7620039581999999
444.3112156070383	2.0	DISTANT	1.385322562593501	StimuliTable-6275-Mapping-Run5.xlsx	78	szemüveg	elsődleges	6	3	1	1594	8	3	4	6398	10	4	1	2.3	4.25	3.75	3.75	0.657139182
452.3115801019121	2.0	CLOSE	1.0970373457384994	StimuliTable-6275-Mapping-Run5.xlsx	15	csecsemő	normális	6	4	1	2039	8	3	2	4470	8	3	4	2.95	4.65	4.75	4.45	0.7993261220000001
462.31103604913005	2.0	BASELINE	1.545327613777772	StimuliTable-6275-Mapping-Run5.xlsx	57	műalkotás	korabeli	8	3	1	784	9	4	1	2056	8	4	3	2.0	5.45	4.75	6.2	1.0
474.31158317565496	2.0	CLOSE	1.2010380035208073	StimuliTable-6275-Mapping-Run5.xlsx	18	csomagolás	tetszetős	10	3	1	1577	10	4	4	725	9	3	1	2.1	5.45	6.35	6.25	0.890869737
482.32794855985776	2.0	CLOSE	1.22466638986225	StimuliTable-6275-Mapping-Run5.xlsx	79	szerszám	alattomos	6	1	1	812	8	2	4	304	9	4	1	3.2	2.5	2.4	2.45	0.781269133
492.3284037301965	2.0	DISTANT	1.4563934270045138	StimuliTable-6275-Mapping-Run5.xlsx	3	alkatrész	karbantartási	8	3	1	2625	9	3	2	503	13	5	4	1.55	4.7	4.65	4.65	0.6785420179
502.3278650564717	2.0	BASELINE	1.288675582400174	StimuliTable-6275-Mapping-Run5.xlsx	77	szélvihar	hirtelen	8	3	1	490	9	3	0	6756	8	3	4	4.6	6.2	6.2	6.65	1.0
512.3273158807824	2.0	DISTANT	1.2644124678263324	StimuliTable-6275-Mapping-Run5.xlsx	89	tudomány	genetikai	8	3	1	3986	8	3	5	1398	9	5	2	2.4	4.8	2.6	5.45	0.662602782
524.3268619911796	2.0	BASELINE	1.3206584063227638	StimuliTable-6275-Mapping-Run5.xlsx	4	alkohol	legális	10	2	1	3138	7	3	2	1848	7	3	3	2.75	5.45	5.2	5.3	1.0
534.3273179299467	2.0	DISTANT	1.5764041953589183	StimuliTable-6275-Mapping-Run5.xlsx	92	útlezárás	gyorsforgalmi	8	3	1	1291	9	4	3	882	13	4	3	2.8	5.9	5.45	6.2	0.620973349
544.3437745019073	2.0	CLOSE	1.359951875405386	StimuliTable-6275-Mapping-Run5.xlsx	5	állatkert	különleges	8	4	1	2056	9	3	3	12581	10	4	1	2.5	4.8	5.2	5.4	0.8002586359999999
556.3473323611797	2.0	CLOSE	1.260534426837694	StimuliTable-6275-Mapping-Run5.xlsx	39	készpénz	szerény	10	3	1	3600	8	2	3	3344	7	2	5	3.2	3.75	4.05	2.25	0.885355115
568.3599006463301	2.0	BASELINE	1.4233870461685	StimuliTable-6275-Mapping-Run5.xlsx	16	csengőhang	többféle	10	3	1	2279	10	3	1	2956	8	3	1	2.25	4.55	3.55	5.8	1.0
576.3632392451582	2.0	CLOSE	1.2518459756829543	StimuliTable-6275-Mapping-Run5.xlsx	17	csillagász	türelmes	6	3	1	606	10	3	4	495	8	3	7	2.2	4.5	4.55	5.3	0.7566338779999999
586.37670583215	2.0	DISTANT	1.814680101320846	StimuliTable-6275-Mapping-Run5.xlsx	95	végállomás	belvárosi	8	3	1	893	10	4	4	2263	9	4	7	2.1	5.7	5.7	6.1	0.709046066
594.3770869764667	2.0	DISTANT	1.478372237121221	StimuliTable-6275-Mapping-Run5.xlsx	90	tűzijáték	verhetetlen	6	1	1	1585	9	4	1	357	11	4	2	2.4	3.2	4.55	3.15	0.664982438
606.3926027264642	2.0	CLOSE	1.334001531242393	StimuliTable-6275-Mapping-Run5.xlsx	42	kirándulás	tegnapi	10	3	1	1896	10	4	4	6241	7	3	8	2.15	6.7	5.15	6.1	0.839792311
616.3960719594361	2.0	BASELINE	1.3225187901844038	StimuliTable-6275-Mapping-Run5.xlsx	91	újságcikk	botrányos	8	4	1	503	9	3	0	1508	9	3	4	3.75	5.45	5.65	6.55	1.0
626.4095298374777	2.0	DISTANT	1.4772654329499346	StimuliTable-6275-Mapping-Run5.xlsx	7	ásványvíz	nagysikerű	8	1	1	963	9	3	1	627	10	4	1	1.35	4.75	4.35	5.75	0.66301918
638.4130659243929	2.0	CLOSE	1.4978754021794884	StimuliTable-6275-Mapping-Run5.xlsx	14	boríték	szavazási	10	3	1	1364	7	3	3	407	9	4	7	3.5	6.65	6.65	6.85	0.75406909
646.4264420920626	2.0	DISTANT	1.5726854767854093	StimuliTable-6275-Mapping-Run5.xlsx	41	királynő	példátlan	6	3	1	2060	8	3	2	2102	9	3	1	2.55	4.55	4.6	5.3	0.661574185
