onset	duration	trial_type	response_time	stim_list	itemno	noun	adjective	jitter	response	counterbalance	noun_freq	noun_char	noun_syll	noun_phon	adj_freq	adj_char	adj_syll	adj_phon	arousal	concreteness	imageability	meaningfulness	cosine
28.070330272137653	2.0	BASELINE	1.3174376790266251	StimuliTable-2453-Mapping-Run2.xlsx	28	gorilla	érzékeny	10	2	2	659	7	3	2	3895	8	3	3	3.1	4.0	4.3	4.9	1.0
38.08080766942294	2.0	BASELINE	1.2503737810911844	StimuliTable-2453-Mapping-Run2.xlsx	30	háziorvos	elégedetlen	8	3	2	2011	9	4	4	2000	11	5	3	4.1	5.6	5.2	5.6	1.0
50.09138803741371	2.0	CLOSE	1.1758007060998352	StimuliTable-2453-Mapping-Run2.xlsx	63	napsütés	zavartalan	10	3	2	3340	8	3	2	1197	10	4	1	2.75	5.95	6.1	5.75	0.824103177
62.09296845844074	2.0	DISTANT	1.3264514578913804	StimuliTable-2453-Mapping-Run2.xlsx	79	szerszám	illegális	10	2	2	812	8	2	4	5833	9	4	1	3.8	4.1	3.65	5.05	0.606139541
74.11054366227472	2.0	DISTANT	1.212297417296213	StimuliTable-2453-Mapping-Run2.xlsx	16	csengőhang	általános	10	3	2	2279	10	3	1	25132	9	4	3	2.4	5.65	4.6	5.45	0.712553442
84.11902849958278	2.0	BASELINE	0.8759802388376556	StimuliTable-2453-Mapping-Run2.xlsx	15	csecsemő	egészséges	8	4	2	2039	8	3	2	7076	10	4	8	2.6	6.5	6.55	6.6	1.0
96.12860195752	2.0	BASELINE	1.4099829842161853	StimuliTable-2453-Mapping-Run2.xlsx	81	szőnyeg	használati	10	1	2	1303	7	2	1	1806	10	4	5	1.9	3.55	4.25	3.8	1.0
106.13708474565648	2.0	DISTANT	1.097691535120248	StimuliTable-2453-Mapping-Run2.xlsx	41	királynő	példátlan	8	3	2	2060	8	3	2	2102	9	3	1	2.55	4.55	4.6	5.3	0.661574185
118.16366271408332	2.0	CLOSE	0.9192440720798912	StimuliTable-2453-Mapping-Run2.xlsx	43	kolbász	méternyi	10	4	2	867	7	2	2	324	8	3	1	2.75	5.95	6.65	5.85	0.762132525
128.16912528435932	2.0	DISTANT	1.441539919207571	StimuliTable-2453-Mapping-Run2.xlsx	61	művészet	strukturális	8	3	2	6299	8	3	1	2005	12	4	2	2.05	3.3	3.25	3.8	0.65917778
138.17963341917493	2.0	CLOSE	0.8784133700100938	StimuliTable-2453-Mapping-Run2.xlsx	44	kollégium	felsőoktatási	8	4	2	3139	9	4	3	5953	13	6	1	3.0	6.65	6.25	6.7	0.8090670109999999
148.18510854059423	2.0	BASELINE	0.97695889598981	StimuliTable-2453-Mapping-Run2.xlsx	80	színdarab	humoros	8	4	2	571	9	3	1	799	7	3	7	2.85	5.95	5.95	6.8	1.0
160.1917135221738	2.0	DISTANT	1.5147879507858306	StimuliTable-2453-Mapping-Run2.xlsx	68	ösztöndíj	partnerségi	10	2	2	2344	9	3	1	465	11	4	3	2.05	4.7	2.1	4.3	0.680144787
168.2020520883234	2.0	CLOSE	1.1364538579800865	StimuliTable-2453-Mapping-Run2.xlsx	39	készpénz	szerény	6	3	2	3600	8	2	3	3344	7	2	5	3.2	3.75	4.05	2.25	0.885355115
176.21143702277914	2.0	CLOSE	0.8630264217208605	StimuliTable-2453-Mapping-Run2.xlsx	19	diáklány	védtelen	6	4	2	819	8	3	4	650	8	3	5	4.7	5.4	6.25	6.05	0.762401283
184.21784323504835	2.0	DISTANT	1.2241505749407224	StimuliTable-2453-Mapping-Run2.xlsx	76	szakadék	kedvezőtlen	6	2	2	1478	8	3	4	3202	11	4	2	3.95	2.85	3.3	2.35	0.659476936
196.22743590394384	2.0	BASELINE	1.398162869430962	StimuliTable-2453-Mapping-Run2.xlsx	59	műemlék	természeti	10	1	2	1457	7	3	1	3805	10	4	6	2.45	4.95	5.05	4.45	1.0
206.23592945020937	2.0	BASELINE	1.0618999939324567	StimuliTable-2453-Mapping-Run2.xlsx	26	fejfájás	kellemetlen	8	3	2	1351	8	3	4	3486	11	4	1	5.85	5.5	5.25	6.7	1.0
214.2592804909218	2.0	DISTANT	1.318522713627317	StimuliTable-2453-Mapping-Run2.xlsx	69	pénztárca	alvilági	6	1	2	1902	9	3	3	393	8	4	3	3.55	2.25	2.8	2.6	0.690712929
222.25865267700283	2.0	CLOSE	1.5033028750185622	StimuliTable-2453-Mapping-Run2.xlsx	38	kerékpár	intelligens	6	2	2	3466	8	3	3	2053	11	4	1	1.9	3.15	2.8	3.4	0.787231982
230.2730386065814	2.0	DISTANT	1.320350315552787	StimuliTable-2453-Mapping-Run2.xlsx	42	kirándulás	mielőbbi	6	2	2	1896	10	4	4	1499	8	4	1	2.05	3.85	3.35	5.25	0.63326329
242.2746981767268	2.0	DISTANT	1.1512370700656902	StimuliTable-2453-Mapping-Run2.xlsx	6	áruházlánc	kockázatos	10	2	2	935	10	4	2	2073	10	4	4	3.05	2.95	2.7	3.7	0.71600765
250.2900602788432	2.0	BASELINE	1.1517109402193455	StimuliTable-2453-Mapping-Run2.xlsx	70	pisztoly	törvénytelen	6	3	2	1679	8	2	3	1475	12	4	3	4.75	4.9	4.9	5.3	1.0
260.3065061348316	2.0	CLOSE	1.0074136346083833	StimuliTable-2453-Mapping-Run2.xlsx	66	oroszlán	csendes	8	3	2	1351	8	3	3	2305	7	2	7	2.15	5.45	5.7	6.3	0.851599276
270.3229919495934	2.0	DISTANT	1.1341713406873168	StimuliTable-2453-Mapping-Run2.xlsx	11	barlang	mesterséges	8	2	2	1015	7	2	2	2071	11	4	8	1.75	5.25	4.95	6.65	0.648987412
280.3234366191027	2.0	CLOSE	1.2540376939432465	StimuliTable-2453-Mapping-Run2.xlsx	7	ásványvíz	színvonalas	8	2	2	963	9	3	1	1782	11	4	5	1.5	3.65	3.15	3.4	0.7986723179999999
290.33891910985403	2.0	BASELINE	1.1497429702576485	StimuliTable-2453-Mapping-Run2.xlsx	1	akadály	lehetetlen	8	3	2	6030	7	3	2	5822	10	4	6	5.4	4.65	3.6	6.3	1.0
298.34533659253793	2.0	BASELINE	0.9682273900543804	StimuliTable-2453-Mapping-Run2.xlsx	40	kesztyű	férfias	6	3	2	891	7	2	1	506	7	3	6	1.7	5.45	4.85	5.4	1.0
308.35078609937045	2.0	DISTANT	1.114516743371496	StimuliTable-2453-Mapping-Run2.xlsx	64	novella	körülményes	8	3	2	925	7	3	1	379	11	4	6	3.1	3.75	2.55	3.95	0.6815447809999999
320.3633756768395	2.0	CLOSE	1.0377566935494542	StimuliTable-2453-Mapping-Run2.xlsx	41	királynő	gyönyörű	10	4	2	2060	8	3	2	4450	8	3	6	2.95	5.7	6.7	6.6	0.846518397
332.3729452925909	2.0	CLOSE	0.9634600001154467	StimuliTable-2453-Mapping-Run2.xlsx	92	útlezárás	félpályás	10	2	2	1291	9	4	3	1206	9	3	2	2.95	6.3	6.3	6.3	0.78665024
344.3824936482124	2.0	DISTANT	1.0898140200588389	StimuliTable-2453-Mapping-Run2.xlsx	80	színdarab	társulati	10	3	2	571	9	3	1	342	9	4	7	2.45	5.8	5.8	5.1	0.6175254579999999
352.3899544136948	2.0	CLOSE	1.5071568482089788	StimuliTable-2453-Mapping-Run2.xlsx	4	alkohol	biztonságos	6	1	2	3138	7	3	2	8412	11	4	6	3.5	2.55	2.7	3.1	0.75390619
364.3994843268156	2.0	CLOSE	1.0731980831187684	StimuliTable-2453-Mapping-Run2.xlsx	81	szőnyeg	mindennapi	10	1	2	1303	7	2	1	5073	10	4	3	1.35	3.9	5.0	4.05	0.75152117
376.4090990242694	2.0	BASELINE	1.1114283906645142	StimuliTable-2453-Mapping-Run2.xlsx	91	újságcikk	botrányos	10	3	2	503	9	3	0	1508	9	3	4	3.75	5.45	5.65	6.55	1.0
384.4154476036638	2.0	DISTANT	1.352714366686996	StimuliTable-2453-Mapping-Run2.xlsx	65	olimpikon	bravúros	6	3	2	644	9	4	2	461	8	3	2	2.9	5.15	5.5	6.5	0.613806427
396.4260804816004	2.0	BASELINE	1.142570112933754	StimuliTable-2453-Mapping-Run2.xlsx	89	tudomány	mérnöki	10	4	2	3986	8	3	5	877	7	3	6	1.7	4.75	3.4	6.0	1.0
408.4326201459335	2.0	CLOSE	1.4234339808026562	StimuliTable-2453-Mapping-Run2.xlsx	82	találmány	újszerű	10	3	2	1346	9	3	4	1147	7	3	1	2.2	5.1	4.05	5.75	0.758028567
416.4420376109483	2.0	DISTANT	1.0861024640471442	StimuliTable-2453-Mapping-Run2.xlsx	44	kollégium	közüzemi	6	2	2	3139	9	4	3	1019	8	4	4	2.75	4.6	4.35	3.9	0.6578273179999999
424.4483872149285	2.0	BASELINE	1.1272733280493412	StimuliTable-2453-Mapping-Run2.xlsx	90	tűzijáték	nagyszabású	6	3	2	1585	9	4	1	3070	11	4	1	2.9	6.2	6.9	6.6	1.0
434.4569027897669	2.0	CLOSE	1.4149693790241145	StimuliTable-2453-Mapping-Run2.xlsx	59	műemlék	őshonos	8	1	2	1457	7	3	1	766	7	3	1	2.2	4.0	3.75	4.0	0.769399345
444.46540555729007	2.0	DISTANT	1.4707456897740483	StimuliTable-2453-Mapping-Run2.xlsx	33	iránytű	funkcionális	8	3	2	794	7	3	2	570	12	5	1	1.75	4.9	4.85	4.9	0.6793020959999999
452.4547237554653	2.0	DISTANT	1.4886787295981776	StimuliTable-2453-Mapping-Run2.xlsx	77	szélvihar	kíméletlen	6	3	2	490	9	3	0	564	10	4	2	5.5	5.75	6.05	6.5	0.6293716429999999
462.45621554995887	2.0	BASELINE	1.0477417781658005	StimuliTable-2453-Mapping-Run2.xlsx	6	áruházlánc	veszteséges	8	3	2	935	10	4	2	1234	11	4	8	2.7	4.85	4.1	5.9	1.0
470.4666268615693	2.0	CLOSE	1.1885362867906224	StimuliTable-2453-Mapping-Run2.xlsx	64	novella	beszédes	6	2	2	925	7	3	1	637	8	3	7	3.3	4.4	3.75	4.9	0.783685148
480.47807249086327	2.0	DISTANT	1.0734188809874468	StimuliTable-2453-Mapping-Run2.xlsx	43	kolbász	szezonális	8	2	2	867	7	2	2	973	10	4	1	1.6	3.9	3.95	3.15	0.605840862
488.4814894789306	2.0	BASELINE	1.2855905305914348	StimuliTable-2453-Mapping-Run2.xlsx	66	oroszlán	nyugodt	6	3	2	1351	8	3	3	2967	7	2	2	2.1	5.9	6.5	6.35	1.0
496.4908797924581	2.0	BASELINE	1.0601512849825667	StimuliTable-2453-Mapping-Run2.xlsx	27	folyadék	elegendő	6	4	2	1438	8	3	3	9296	8	4	1	2.65	4.85	5.45	6.5	1.0
508.4984571043751	2.0	CLOSE	1.0531526069389656	StimuliTable-2453-Mapping-Run2.xlsx	26	fejfájás	borzalmas	10	4	2	1351	8	3	4	1061	9	3	6	5.8	5.95	6.0	6.75	0.831396163
516.5078179611155	2.0	BASELINE	1.1877173879329348	StimuliTable-2453-Mapping-Run2.xlsx	18	csomagolás	ízléses	6	3	2	1577	10	4	4	472	7	3	7	1.35	5.8	6.1	6.05	1.0
524.5062039849727	2.0	CLOSE	1.1812299773882842	StimuliTable-2453-Mapping-Run2.xlsx	13	bölcsőde	környékbeli	6	3	2	1219	8	3	1	1283	11	4	2	1.5	6.15	6.3	6.45	0.7846326231999999
536.5237825187069	2.0	BASELINE	1.090902896830812	StimuliTable-2453-Mapping-Run2.xlsx	3	alkatrész	műszaki	10	3	2	2625	9	3	2	11955	7	3	1	1.6	5.9	5.6	6.45	1.0
546.5322996304021	2.0	CLOSE	1.138602923194412	StimuliTable-2453-Mapping-Run2.xlsx	16	csengőhang	változatos	8	2	2	2279	10	3	1	2172	10	4	6	2.55	4.0	4.4	5.35	0.843068182
556.5577672057843	2.0	DISTANT	1.0655495625833282	StimuliTable-2453-Mapping-Run2.xlsx	32	horgász	járatos	8	3	2	707	7	2	2	317	7	3	6	1.45	4.9	3.05	5.0	0.6454380751
568.5643417059764	2.0	DISTANT	1.2104183300107252	StimuliTable-2453-Mapping-Run2.xlsx	100	zöldség	korlátlan	10	2	2	2637	7	2	3	1924	9	3	2	2.05	3.9	4.75	3.95	0.7183503509999999
578.5758452242735	2.0	BASELINE	1.0872902132105082	StimuliTable-2453-Mapping-Run2.xlsx	78	szemüveg	kényelmes	8	4	2	1594	8	3	4	3437	9	3	8	2.15	6.1	6.05	6.7	1.0
588.5812880713056	2.0	CLOSE	0.8658186696120538	StimuliTable-2453-Mapping-Run2.xlsx	15	csecsemő	normális	8	4	2	2039	8	3	2	4470	8	3	4	2.95	4.65	4.75	4.45	0.7993261220000001
600.5938545956305	2.0	DISTANT	1.0449766817473574	StimuliTable-2453-Mapping-Run2.xlsx	31	helyezés	időszaki	10	1	2	5834	8	3	4	796	8	4	1	2.25	2.55	1.65	2.85	0.617949784
612.603443678483	2.0	CLOSE	1.1310340640920913	StimuliTable-2453-Mapping-Run2.xlsx	30	háziorvos	türelmetlen	10	2	2	2011	9	4	4	480	11	4	1	4.55	6.25	5.95	6.6	0.7620039581999999
622.6049252271332	2.0	BASELINE	1.0178175179898972	StimuliTable-2453-Mapping-Run2.xlsx	2	albérlet	szegényes	8	3	2	547	8	3	1	439	9	3	7	4.5	5.55	6.5	6.05	1.0
630.615343198544	2.0	BASELINE	1.0471103781892452	StimuliTable-2453-Mapping-Run2.xlsx	14	boríték	érvénytelen	6	2	2	1364	7	3	3	1401	11	4	2	2.8	4.1	4.1	3.4	1.0
638.624716862585	2.0	DISTANT	1.0214081730518956	StimuliTable-2453-Mapping-Run2.xlsx	17	csillagász	tisztességes	6	3	2	606	10	3	4	3762	12	4	7	1.35	4.4	3.5	5.45	0.601381719
646.631103095453	2.0	CLOSE	1.0309396230441052	StimuliTable-2453-Mapping-Run2.xlsx	1	akadály	reménytelen	6	2	2	6030	7	3	2	1273	11	4	4	4.8	3.9	2.9	4.5	0.8418771620000001
