onset	duration	trial_type	response_time	stim_list	itemno	noun	adjective	jitter	response	counterbalance	noun_freq	noun_char	noun_syll	noun_phon	adj_freq	adj_char	adj_syll	adj_phon	arousal	concreteness	imageability	meaningfulness	cosine
28.06627454224872	2.0	CLOSE	1.4923298547946615	StimuliTable-7429-Mapping-Run1.xlsx	53	mellény	szabadidős	10	2	1	909	7	2	5	608	10	4	1	2.05	4.15	4.65	4.85	0.7459257840000001
36.07061697480458	2.0	DISTANT	1.9366119599908416	StimuliTable-7429-Mapping-Run1.xlsx	31	helyezés	időszaki	6	2	1	5834	8	3	4	796	8	4	1	2.25	2.55	1.65	2.85	0.617949784
46.08310687947596	2.0	DISTANT	1.7876524097009678	StimuliTable-7429-Mapping-Run1.xlsx	76	szakadék	kedvezőtlen	8	2	1	1478	8	3	4	3202	11	4	2	3.95	2.85	3.3	2.35	0.659476936
58.08261175046573	2.0	BASELINE	1.4676704833182157	StimuliTable-7429-Mapping-Run1.xlsx	14	boríték	érvénytelen	10	3	1	1364	7	3	3	1401	11	4	2	2.8	4.1	4.1	3.4	1.0
66.08303387804335	2.0	CLOSE	1.835705026060168	StimuliTable-7429-Mapping-Run1.xlsx	44	kollégium	felsőoktatási	6	4	1	3139	9	4	3	5953	13	6	1	3.0	6.65	6.25	6.7	0.8090670109999999
76.08643933081476	2.0	DISTANT	1.576020745727874	StimuliTable-7429-Mapping-Run1.xlsx	6	áruházlánc	kockázatos	8	1	1	935	10	4	2	2073	10	4	4	3.05	2.95	2.7	3.7	0.71600765
84.09882908264626	2.0	CLOSE	1.2190365706410375	StimuliTable-7429-Mapping-Run1.xlsx	23	egyenruha	parancsnoki	6	2	1	1598	9	4	1	431	11	4	6	2.35	6.25	6.6	6.35	0.7798475029999999
94.1022581007892	2.0	DISTANT	1.4075713499332778	StimuliTable-7429-Mapping-Run1.xlsx	40	kesztyű	paraszti	8	3	1	891	7	2	1	347	8	3	4	1.6	3.7	4.35	3.15	0.61781317
106.11580614201011	2.0	CLOSE	1.218338318351016	StimuliTable-7429-Mapping-Run1.xlsx	41	királynő	gyönyörű	10	4	1	2060	8	3	2	4450	8	3	6	2.95	5.7	6.7	6.6	0.846518397
118.11534226273216	2.0	DISTANT	1.506345361322019	StimuliTable-7429-Mapping-Run1.xlsx	7	ásványvíz	nagysikerű	10	2	1	963	9	3	1	627	10	4	1	1.35	4.75	4.35	5.75	0.66301918
126.11575286377048	2.0	BASELINE	1.4183545579653585	StimuliTable-7429-Mapping-Run1.xlsx	1	akadály	lehetetlen	6	1	1	6030	7	3	2	5822	10	4	6	5.4	4.65	3.6	6.3	1.0
136.11916215872407	2.0	DISTANT	1.4708085203164956	StimuliTable-7429-Mapping-Run1.xlsx	90	tűzijáték	verhetetlen	8	1	1	1585	9	4	1	357	11	4	2	2.4	3.2	4.55	3.15	0.664982438
148.13171020839218	2.0	CLOSE	1.401390049726615	StimuliTable-7429-Mapping-Run1.xlsx	86	telefonszám	háztartási	10	4	1	4732	11	4	2	1415	10	4	4	2.1	4.3	3.4	4.5	0.7732623820000001
156.13507493404904	2.0	BASELINE	1.078195548037911	StimuliTable-7429-Mapping-Run1.xlsx	3	alkatrész	műszaki	6	4	1	2625	9	3	2	11955	7	3	1	1.6	5.9	5.6	6.45	1.0
168.14863347722712	2.0	DISTANT	1.3927569259794836	StimuliTable-7429-Mapping-Run1.xlsx	80	színdarab	társulati	10	2	1	571	9	3	1	342	9	4	7	2.45	5.8	5.8	5.1	0.6175254579999999
178.14811503898818	2.0	BASELINE	1.201083341253252	StimuliTable-7429-Mapping-Run1.xlsx	85	távirat	udvarias	8	3	1	635	7	3	2	446	8	4	1	2.1	4.8	4.45	5.15	1.0
186.14844239277957	2.0	BASELINE	1.5450110180936465	StimuliTable-7429-Mapping-Run1.xlsx	79	szerszám	trükkös	6	4	1	812	8	2	4	689	7	2	7	1.7	3.15	3.55	4.15	1.0
194.1518181326865	2.0	CLOSE	1.3415857396721549	StimuliTable-7429-Mapping-Run1.xlsx	38	kerékpár	intelligens	6	2	1	3466	8	3	3	2053	11	4	1	1.9	3.15	2.8	3.4	0.787231982
204.16430009685064	2.0	CLOSE	1.8004030703632452	StimuliTable-7429-Mapping-Run1.xlsx	28	gorilla	problémás	8	1	1	659	7	3	2	1593	9	3	8	3.3	4.7	4.55	4.65	0.775599658
214.1677565225509	2.0	BASELINE	1.2529279337577464	StimuliTable-7429-Mapping-Run1.xlsx	57	műalkotás	korabeli	8	4	1	784	9	4	1	2056	8	4	3	2.0	5.45	4.75	6.2	1.0
224.1811759787888	2.0	CLOSE	1.1117603257953306	StimuliTable-7429-Mapping-Run1.xlsx	26	fejfájás	borzalmas	8	4	1	1351	8	3	4	1061	9	3	6	5.8	5.95	6.0	6.75	0.831396163
234.18464290645352	2.0	DISTANT	1.5162371834449004	StimuliTable-7429-Mapping-Run1.xlsx	13	bölcsőde	lokális	8	2	1	1219	8	3	1	578	7	3	3	1.75	4.7	5.35	6.55	0.6315799952000001
244.1971005368032	2.0	CLOSE	1.1670826040681277	StimuliTable-7429-Mapping-Run1.xlsx	56	monitor	érintős	8	4	1	3644	7	3	3	784	7	3	3	1.5	6.55	6.45	6.45	0.8547784690000001
254.2005815524608	2.0	DISTANT	0.0	StimuliTable-7429-Mapping-Run1.xlsx	30	háziorvos	részmunkaidős	8	0	1	2011	9	4	4	365	13	5	1	2.05	5.7	4.75	5.75	0.6547772288
266.2140950140529	2.0	DISTANT	1.3744497036786925	StimuliTable-7429-Mapping-Run1.xlsx	93	útmutatás	lelkiismereti	10	2	1	703	9	4	2	476	13	6	6	3.5	3.7	2.5	5.05	0.6710424423
276.2175847386534	2.0	BASELINE	1.339022749038122	StimuliTable-7429-Mapping-Run1.xlsx	99	zeneszerző	nagyszerű	8	3	1	2295	10	4	1	4154	9	3	1	2.35	5.5	5.55	6.65	1.0
284.22992454213454	2.0	BASELINE	1.5097392875504738	StimuliTable-7429-Mapping-Run1.xlsx	92	útlezárás	helyszíni	6	3	1	1291	9	4	3	4087	9	3	7	3.75	6.6	6.45	6.5	1.0
292.23027725431893	2.0	CLOSE	1.3494770664110547	StimuliTable-7429-Mapping-Run1.xlsx	21	díszlet	művészi	6	2	1	1420	7	2	3	2366	7	3	1	1.7	5.7	5.8	6.05	0.82010299
302.246746377401	2.0	CLOSE	1.2291120490008325	StimuliTable-7429-Mapping-Run1.xlsx	43	kolbász	méternyi	8	2	1	867	7	2	2	324	8	3	1	2.75	5.95	6.65	5.85	0.762132525
310.24710959154254	2.0	DISTANT	1.212887288605998	StimuliTable-7429-Mapping-Run1.xlsx	78	szemüveg	elsődleges	6	3	1	1594	8	3	4	6398	10	4	1	2.3	4.25	3.75	3.75	0.657139182
322.2466938676007	2.0	CLOSE	1.3971021761353768	StimuliTable-7429-Mapping-Run1.xlsx	5	állatkert	különleges	10	3	1	2056	9	3	3	12581	10	4	1	2.5	4.8	5.2	5.4	0.8002586359999999
330.2470581063244	2.0	BASELINE	1.0848330431654176	StimuliTable-7429-Mapping-Run1.xlsx	29	hangszer	autentikus	6	3	1	1828	8	2	3	526	10	5	1	2.0	4.6	3.7	4.7	1.0
342.2465696370928	2.0	CLOSE	1.3011347496285453	StimuliTable-7429-Mapping-Run1.xlsx	7	ásványvíz	színvonalas	10	2	1	963	9	3	1	1782	11	4	5	1.5	3.65	3.15	3.4	0.7986723179999999
354.2501372298866	2.0	CLOSE	1.4176276173893712	StimuliTable-7429-Mapping-Run1.xlsx	16	csengőhang	változatos	10	1	1	2279	10	3	1	2172	10	4	6	2.55	4.0	4.4	5.35	0.843068182
364.2625725755897	2.0	BASELINE	1.6924313908202748	StimuliTable-7429-Mapping-Run1.xlsx	48	legénység	katonai	8	4	1	1179	9	3	4	14642	7	4	3	4.35	6.0	5.9	6.15	1.0
374.2660492367759	2.0	CLOSE	1.1690031820944569	StimuliTable-7429-Mapping-Run1.xlsx	57	műalkotás	reneszánsz	8	4	1	784	9	4	1	1591	10	3	3	2.25	6.25	6.1	6.6	0.743859231
386.27957524949306	2.0	BASELINE	1.1878477973914414	StimuliTable-7429-Mapping-Run1.xlsx	54	menetrend	szokásos	10	4	1	4833	9	3	2	8246	8	3	6	1.7	5.4	4.45	6.65	1.0
394.2829530385643	2.0	DISTANT	1.2723652694512566	StimuliTable-7429-Mapping-Run1.xlsx	51	magazin	állatorvosi	6	3	1	7307	7	3	2	356	11	5	6	1.6	5.7	5.95	6.65	0.735963702
402.2952943789169	2.0	BASELINE	1.4911246908013709	StimuliTable-7429-Mapping-Run1.xlsx	31	helyezés	végleges	6	3	1	5834	8	3	4	7802	8	3	3	2.95	4.45	3.65	5.2	1.0
410.29566911960137	2.0	CLOSE	1.3388670126478246	StimuliTable-7429-Mapping-Run1.xlsx	39	készpénz	szerény	6	3	1	3600	8	2	3	3344	7	2	5	3.2	3.75	4.05	2.25	0.885355115
418.2950338790688	2.0	DISTANT	1.2031798911521037	StimuliTable-7429-Mapping-Run1.xlsx	69	pénztárca	alvilági	6	2	1	1902	9	3	3	393	8	4	3	3.55	2.25	2.8	2.6	0.690712929
426.2953986300854	2.0	DISTANT	1.6751154511257482	StimuliTable-7429-Mapping-Run1.xlsx	91	újságcikk	igazságtalan	6	2	1	503	9	3	0	1736	12	5	2	5.75	5.35	4.5	5.75	0.626544654
438.2949355192432	2.0	BASELINE	1.2991439877660014	StimuliTable-7429-Mapping-Run1.xlsx	18	csomagolás	ízléses	10	3	1	1577	10	4	4	472	7	3	7	1.35	5.8	6.1	6.05	1.0
450.295513895504	2.0	CLOSE	1.242969257687946	StimuliTable-7429-Mapping-Run1.xlsx	11	barlang	elhagyatott	10	3	1	1015	7	2	2	307	11	4	2	3.35	6.25	6.6	6.15	0.803201675
462.2950610304797	2.0	DISTANT	1.091208757712593	StimuliTable-7429-Mapping-Run1.xlsx	32	horgász	járatos	10	2	1	707	7	2	2	317	7	3	6	1.45	4.9	3.05	5.0	0.6454380751
474.2986127422592	2.0	BASELINE	1.2236625561308756	StimuliTable-7429-Mapping-Run1.xlsx	27	folyadék	elegendő	10	3	1	1438	8	3	3	9296	8	4	1	2.65	4.85	5.45	6.5	1.0
482.31097226893326	2.0	DISTANT	1.0745165320040542	StimuliTable-7429-Mapping-Run1.xlsx	42	kirándulás	mielőbbi	6	3	1	1896	10	4	4	1499	8	4	1	2.05	3.85	3.35	5.25	0.63326329
494.3145250052985	2.0	DISTANT	1.199053901440493	StimuliTable-7429-Mapping-Run1.xlsx	56	monitor	digitális	10	3	1	3644	7	3	3	11798	9	4	1	1.65	6.1	6.45	5.5	0.7256274220000001
504.3279810903259	2.0	BASELINE	1.4578949511924293	StimuliTable-7429-Mapping-Run1.xlsx	53	mellény	sportos	8	3	1	909	7	2	5	700	7	2	7	1.45	5.9	6.0	6.0	1.0
512.3283455851961	2.0	BASELINE	1.3856130314452455	StimuliTable-7429-Mapping-Run1.xlsx	6	áruházlánc	veszteséges	6	2	1	935	10	4	2	1234	11	4	8	2.7	4.85	4.1	5.9	1.0
522.3447770549064	2.0	CLOSE	1.2971898546966258	StimuliTable-7429-Mapping-Run1.xlsx	79	szerszám	alattomos	8	1	1	812	8	2	4	304	9	4	1	3.2	2.5	2.4	2.45	0.781269133
532.3442711677926	2.0	BASELINE	1.3848830171264126	StimuliTable-7429-Mapping-Run1.xlsx	89	tudomány	mérnöki	8	4	1	3986	8	3	5	877	7	3	6	1.7	4.75	3.4	6.0	1.0
542.3607146763388	2.0	CLOSE	1.5525734541697602	StimuliTable-7429-Mapping-Run1.xlsx	99	zeneszerző	fantasztikus	8	4	1	2295	10	4	1	3000	12	4	2	2.9	5.6	5.2	6.75	0.9369357229999999
550.3610794273518	2.0	CLOSE	1.0883122658051434	StimuliTable-7429-Mapping-Run1.xlsx	77	szélvihar	váratlan	6	4	1	490	9	3	0	2782	8	3	8	4.2	6.1	5.9	6.65	0.850282848
560.3605089916018	2.0	DISTANT	1.5525685874054034	StimuliTable-7429-Mapping-Run1.xlsx	35	kapitány	tüzérségi	8	3	1	6280	8	3	5	319	9	4	5	2.8	5.9	5.55	6.15	0.616324306
572.3610681569553	2.0	BASELINE	1.60027028460172	StimuliTable-7429-Mapping-Run1.xlsx	5	állatkert	egzotikus	10	3	1	2056	9	3	3	643	9	4	1	2.95	5.45	5.6	6.45	1.0
584.3766038862886	2.0	DISTANT	1.0238781280786498	StimuliTable-7429-Mapping-Run1.xlsx	43	kolbász	szezonális	10	3	1	867	7	2	2	973	10	4	1	1.6	3.9	3.95	3.15	0.605840862
592.3769942518411	2.0	BASELINE	1.4716689126362326	StimuliTable-7429-Mapping-Run1.xlsx	94	vacsora	zártkörű	6	3	1	2517	7	3	1	562	8	3	1	2.45	5.85	5.4	6.9	1.0
604.3765367762026	2.0	CLOSE	1.2799617728633166	StimuliTable-7429-Mapping-Run1.xlsx	3	alkatrész	technikai	10	2	1	2625	9	3	2	7859	9	4	3	2.15	4.85	4.45	5.45	0.8308419585
612.3769056255442	2.0	DISTANT	1.5356891194314812	StimuliTable-7429-Mapping-Run1.xlsx	88	törmelék	életveszélyes	6	2	1	730	8	3	1	3907	13	5	3	4.75	5.8	6.2	6.4	0.657350659
624.3764525043734	2.0	DISTANT	0.0	StimuliTable-7429-Mapping-Run1.xlsx	23	egyenruha	vasutas	10	0	1	1598	9	4	1	1481	7	3	6	1.35	6.25	6.8	6.75	0.63155067
634.3769040886691	2.0	BASELINE	0.8316356444738631	StimuliTable-7429-Mapping-Run1.xlsx	13	bölcsőde	szomszédos	8	2	1	1219	8	3	1	5450	10	3	7	1.7	6.1	5.1	6.55	1.0
646.393441858716	2.0	BASELINE	0.9272915982000997	StimuliTable-7429-Mapping-Run1.xlsx	93	útmutatás	erkölcsi	10	2	1	703	9	4	2	4377	8	3	7	3.2	4.1	2.7	6.3	1.0
