onset	duration	trial_type	response_time	stim_list	itemno	noun	adjective	jitter	response	counterbalance	noun_freq	noun_char	noun_syll	noun_phon	adj_freq	adj_char	adj_syll	adj_phon	arousal	concreteness	imageability	meaningfulness	cosine
28.049394046587626	2.0	BASELINE	1.477144415246585	StimuliTable-2880-Mapping-Run2.xlsx	76	szakadék	iszonyatos	10	3	2	1478	8	3	4	452	10	4	6	5.1	4.75	5.85	5.65	1.0
38.04990096088295	2.0	BASELINE	1.2211017227655248	StimuliTable-2880-Mapping-Run2.xlsx	80	színdarab	humoros	8	3	2	571	9	3	1	799	7	3	7	2.85	5.95	5.95	6.8	1.0
50.049509312597365	2.0	CLOSE	1.7971097944591747	StimuliTable-2880-Mapping-Run2.xlsx	42	kirándulás	tegnapi	10	2	2	1896	10	4	4	6241	7	3	8	2.15	6.7	5.15	6.1	0.839792311
62.05012252776942	2.0	DISTANT	0.0	StimuliTable-2880-Mapping-Run2.xlsx	15	csecsemő	tevékeny	10	0	2	2039	8	3	2	403	8	3	2	2.4	4.65	4.65	4.15	0.655481756
74.06673235975359	2.0	DISTANT	1.4204273909945186	StimuliTable-2880-Mapping-Run2.xlsx	38	kerékpár	hardveres	10	1	2	3466	8	3	3	1550	9	3	5	1.65	2.65	1.5	2.4	0.6436905860000001
84.0702346534199	2.0	BASELINE	1.112850546349364	StimuliTable-2880-Mapping-Run2.xlsx	81	szőnyeg	használati	8	1	2	1303	7	2	1	1806	10	4	5	1.9	3.55	4.25	3.8	1.0
96.08284373028437	2.0	BASELINE	1.2917682395000156	StimuliTable-2880-Mapping-Run2.xlsx	96	ventilátor	masszív	10	1	2	1165	10	4	3	982	7	2	2	1.6	4.5	5.6	5.5	1.0
106.08631810396218	2.0	DISTANT	1.152250005314272	StimuliTable-2880-Mapping-Run2.xlsx	4	alkohol	szabványos	8	1	2	3138	7	3	2	1426	10	3	2	1.9	2.9	3.45	2.95	0.640375018
118.0989274369731	2.0	CLOSE	1.3311133953702663	StimuliTable-2880-Mapping-Run2.xlsx	65	olimpikon	világhírű	10	4	2	644	9	4	2	2877	9	4	4	2.25	6.3	5.75	6.9	0.8306809070000001
128.0994346074167	2.0	DISTANT	1.3951485304987727	StimuliTable-2880-Mapping-Run2.xlsx	89	tudomány	genetikai	8	3	2	3986	8	3	5	1398	9	5	2	2.4	4.8	2.6	5.45	0.662602782
138.09898942447217	2.0	CLOSE	1.667146087884248	StimuliTable-2880-Mapping-Run2.xlsx	60	mutatvány	nevetséges	8	1	2	716	9	3	3	1625	10	4	3	2.6	4.8	5.3	5.75	0.8695170879999999
148.09949608262104	2.0	BASELINE	1.739116647409901	StimuliTable-2880-Mapping-Run2.xlsx	13	bölcsőde	szomszédos	8	3	2	1219	8	3	1	5450	10	3	7	1.7	6.1	5.1	6.55	1.0
160.09909367617365	2.0	DISTANT	1.595079473352598	StimuliTable-2880-Mapping-Run2.xlsx	20	diktátor	rosszindulatú	10	4	2	1821	8	3	4	2105	13	5	3	6.2	5.85	5.7	6.6	0.6793145540000001
168.09949941252853	2.0	CLOSE	1.4910641947135446	StimuliTable-2880-Mapping-Run2.xlsx	5	állatkert	különleges	6	2	2	2056	9	3	3	12581	10	4	1	2.5	4.8	5.2	5.4	0.8002586359999999
176.09890079771867	2.0	CLOSE	1.3551330387472262	StimuliTable-2880-Mapping-Run2.xlsx	66	oroszlán	csendes	6	1	2	1351	8	3	3	2305	7	2	7	2.15	5.45	5.7	6.3	0.851599276
184.10227424959885	2.0	DISTANT	0.0	StimuliTable-2880-Mapping-Run2.xlsx	3	alkatrész	karbantartási	6	0	2	2625	9	3	2	503	13	5	4	1.55	4.7	4.65	4.65	0.6785420179
196.1159291733929	2.0	BASELINE	1.25844586070707	StimuliTable-2880-Mapping-Run2.xlsx	41	királynő	szépséges	10	4	2	2060	8	3	2	414	9	3	8	2.6	5.15	6.55	6.7	1.0
206.1194020101884	2.0	BASELINE	1.3589526981595554	StimuliTable-2880-Mapping-Run2.xlsx	16	csengőhang	többféle	8	3	2	2279	10	3	1	2956	8	3	1	2.25	4.55	3.55	5.8	1.0
214.13185330069427	2.0	DISTANT	1.4578007296586293	StimuliTable-2880-Mapping-Run2.xlsx	98	zarándok	püspöki	6	2	2	1047	8	3	2	1773	7	3	6	1.9	4.4	4.0	4.2	0.736171305
222.13224827888732	2.0	CLOSE	1.2655134601245663	StimuliTable-2880-Mapping-Run2.xlsx	55	mikrofon	távközlési	6	2	2	1847	8	3	1	3781	10	4	8	1.75	3.85	3.55	4.2	0.7811700109999999
230.148604781798	2.0	DISTANT	1.2491490166667063	StimuliTable-2880-Mapping-Run2.xlsx	70	pisztoly	ellenséges	6	2	2	1679	8	2	3	1644	10	4	8	4.95	4.35	4.55	4.35	0.6924996379999999
242.1492482222784	2.0	DISTANT	1.4008969744718345	StimuliTable-2880-Mapping-Run2.xlsx	81	szőnyeg	templomi	10	4	2	1303	7	2	1	410	8	3	8	1.9	6.4	6.05	6.5	0.613664091
250.16565467379405	2.0	BASELINE	1.584468852946884	StimuliTable-2880-Mapping-Run2.xlsx	78	szemüveg	kényelmes	6	3	2	1594	8	3	4	3437	9	3	8	2.15	6.1	6.05	6.7	1.0
260.16516210371265	2.0	CLOSE	1.2162287881728844	StimuliTable-2880-Mapping-Run2.xlsx	19	diáklány	védtelen	8	3	2	819	8	3	4	650	8	3	5	4.7	5.4	6.25	6.05	0.762401283
270.1646482734559	2.0	DISTANT	1.6164369841990265	StimuliTable-2880-Mapping-Run2.xlsx	54	menetrend	naprakész	8	2	2	4833	9	3	2	816	9	3	1	2.3	5.35	4.4	6.1	0.7033958440000001
280.16517644792657	2.0	CLOSE	1.3362058476759555	StimuliTable-2880-Mapping-Run2.xlsx	68	ösztöndíj	képzési	8	2	2	2344	9	3	1	2239	7	3	7	3.6	5.6	4.35	6.55	0.819112897
290.16468285325936	2.0	BASELINE	1.5204695783540956	StimuliTable-2880-Mapping-Run2.xlsx	39	készpénz	csekély	8	2	2	3600	8	2	3	3258	7	2	2	4.95	4.5	5.7	6.15	1.0
298.1650937125469	2.0	BASELINE	1.3364399657475587	StimuliTable-2880-Mapping-Run2.xlsx	21	díszlet	színpadi	6	3	2	1420	7	2	3	1542	8	3	5	2.1	5.9	6.35	6.75	1.0
308.1645962756793	2.0	DISTANT	1.5844498980914068	StimuliTable-2880-Mapping-Run2.xlsx	18	csomagolás	karakteres	8	1	2	1577	10	4	4	625	10	4	6	1.85	4.5	4.7	5.35	0.7101491090000001
320.1652197367184	2.0	CLOSE	1.7042125628177018	StimuliTable-2880-Mapping-Run2.xlsx	52	matrica	ingyenes	10	4	2	1479	7	3	2	13952	8	3	1	2.65	6.2	4.8	6.5	0.863539815
332.1647809574406	2.0	CLOSE	1.5284237014584503	StimuliTable-2880-Mapping-Run2.xlsx	51	magazin	kutatási	10	4	2	7307	7	3	2	3464	8	4	6	1.7	4.85	4.8	5.1	0.882873833
344.1684256686658	2.0	DISTANT	1.3728735022141336	StimuliTable-2880-Mapping-Run2.xlsx	85	távirat	formális	10	3	2	635	7	3	2	897	8	3	2	2.35	4.3	5.15	6.0	0.6985746620000001
352.1818328986101	2.0	CLOSE	1.5757388615256789	StimuliTable-2880-Mapping-Run2.xlsx	4	alkohol	biztonságos	6	1	2	3138	7	3	2	8412	11	4	6	3.5	2.55	2.7	3.1	0.75390619
364.1844151133719	2.0	CLOSE	1.5401782729713889	StimuliTable-2880-Mapping-Run2.xlsx	61	művészet	látványos	10	3	2	6299	8	3	1	6475	9	3	4	3.7	4.15	5.45	5.65	0.801142275
376.1980444224955	2.0	BASELINE	1.3674805898444902	StimuliTable-2880-Mapping-Run2.xlsx	69	pénztárca	ismeretlen	10	4	2	1902	9	3	3	17883	10	4	7	3.55	4.9	4.9	6.15	1.0
384.2014560402331	2.0	DISTANT	1.699434658645259	StimuliTable-2880-Mapping-Run2.xlsx	7	ásványvíz	nagysikerű	6	1	2	963	9	3	1	627	10	4	1	1.35	4.75	4.35	5.75	0.66301918
396.2140592257256	2.0	BASELINE	1.694434163000551	StimuliTable-2880-Mapping-Run2.xlsx	88	törmelék	építkezési	10	3	2	730	8	3	1	395	10	5	7	1.9	6.55	6.8	6.4	1.0
408.2176683325597	2.0	CLOSE	1.4587891997289262	StimuliTable-2880-Mapping-Run2.xlsx	3	alkatrész	technikai	10	3	2	2625	9	3	2	7859	9	4	3	2.15	4.85	4.45	5.45	0.8308419585
416.2310537900357	2.0	DISTANT	1.597801800353409	StimuliTable-2880-Mapping-Run2.xlsx	17	csillagász	tisztességes	6	1	2	606	10	3	4	3762	12	4	7	1.35	4.4	3.5	5.45	0.601381719
424.230459529721	2.0	BASELINE	1.7097686406268622	StimuliTable-2880-Mapping-Run2.xlsx	2	albérlet	szegényes	6	3	2	547	8	3	1	439	9	3	7	4.5	5.55	6.5	6.05	1.0
434.2479876475827	2.0	CLOSE	1.3171582676604885	StimuliTable-2880-Mapping-Run2.xlsx	6	áruházlánc	nyereséges	8	3	2	935	10	4	2	888	10	4	8	1.75	5.95	4.4	6.5	0.9131852979999999
444.2474628030195	2.0	DISTANT	1.6931413906659143	StimuliTable-2880-Mapping-Run2.xlsx	60	mutatvány	szabálytalan	8	2	2	716	9	3	3	909	12	4	1	3.55	3.95	4.6	5.05	0.609612226
452.26387412132135	2.0	DISTANT	1.6044541859882884	StimuliTable-2880-Mapping-Run2.xlsx	99	zeneszerző	rendkívüli	6	4	2	2295	10	4	1	13622	10	4	2	3.3	5.4	4.8	6.05	0.714982808
462.26441356624673	2.0	BASELINE	1.4521754922425316	StimuliTable-2880-Mapping-Run2.xlsx	54	menetrend	szokásos	8	3	2	4833	9	3	2	8246	8	3	6	1.7	5.4	4.45	6.65	1.0
470.2638287833579	2.0	CLOSE	1.2204608437514253	StimuliTable-2880-Mapping-Run2.xlsx	58	műanyag	értelmetlen	6	2	2	3590	7	3	1	1912	11	4	2	3.0	3.65	3.75	2.75	0.908448935
480.26432596407903	2.0	DISTANT	1.6524555630330724	StimuliTable-2880-Mapping-Run2.xlsx	95	végállomás	belvárosi	8	2	2	893	10	4	4	2263	9	4	7	2.1	5.7	5.7	6.1	0.709046066
488.2677316904428	2.0	BASELINE	1.2968542881390022	StimuliTable-2880-Mapping-Run2.xlsx	68	ösztöndíj	tanulmányi	6	3	2	2344	9	3	1	1823	10	4	8	3.6	6.65	4.5	6.8	1.0
496.28013303234366	2.0	BASELINE	1.2917590182187269	StimuliTable-2880-Mapping-Run2.xlsx	63	napsütés	felhőtlen	6	4	2	3340	8	3	2	612	9	3	1	3.0	6.1	6.45	6.6	1.0
508.2837467498193	2.0	CLOSE	1.2882118988854927	StimuliTable-2880-Mapping-Run2.xlsx	87	tévéműsor	hihetetlen	10	2	2	648	9	4	1	3434	10	4	2	3.2	3.95	4.3	5.2	0.7619771956999999
516.2971165823474	2.0	BASELINE	1.3790922315074567	StimuliTable-2880-Mapping-Run2.xlsx	93	útmutatás	erkölcsi	6	3	2	703	9	4	2	4377	8	3	7	3.2	4.1	2.7	6.3	1.0
524.2975579230915	2.0	CLOSE	1.610848375761634	StimuliTable-2880-Mapping-Run2.xlsx	90	tűzijáték	nevezetes	6	3	2	1585	9	4	1	817	9	4	5	2.8	4.0	5.05	3.5	0.772080302
536.313144961352	2.0	BASELINE	1.586456038952747	StimuliTable-2880-Mapping-Run2.xlsx	79	szerszám	trükkös	10	1	2	812	8	2	4	689	7	2	7	1.7	3.15	3.55	4.15	1.0
546.3166695397795	2.0	CLOSE	1.5109952246584726	StimuliTable-2880-Mapping-Run2.xlsx	39	készpénz	szerény	8	2	2	3600	8	2	3	3344	7	2	5	3.2	3.75	4.05	2.25	0.885355115
556.3301705194117	2.0	DISTANT	1.6017917973131262	StimuliTable-2880-Mapping-Run2.xlsx	77	szélvihar	kíméletlen	8	1	2	490	9	3	0	564	10	4	2	5.5	5.75	6.05	6.5	0.6293716429999999
568.3338078023826	2.0	DISTANT	1.310249479191043	StimuliTable-2880-Mapping-Run2.xlsx	45	kolostor	puritán	10	4	2	1099	8	3	4	301	7	3	1	3.35	5.3	4.6	5.05	0.734071612
578.3463080169058	2.0	BASELINE	1.2650785230471229	StimuliTable-2880-Mapping-Run2.xlsx	8	aszfalt	hibátlan	8	2	2	977	7	2	4	863	8	3	1	1.95	6.3	6.7	6.65	1.0
588.3497798291155	2.0	CLOSE	1.7016172845742403	StimuliTable-2880-Mapping-Run2.xlsx	80	színdarab	mulatságos	8	3	2	571	9	3	1	401	10	4	5	3.3	5.9	6.2	6.9	0.8485735059999999
600.3634147734665	2.0	DISTANT	1.0964481931787304	StimuliTable-2880-Mapping-Run2.xlsx	67	osztályzat	alapfokú	10	3	2	1028	10	3	3	821	8	4	4	2.6	4.3	2.9	3.95	0.713177145
612.3630338833409	2.0	CLOSE	1.2965013180019014	StimuliTable-2880-Mapping-Run2.xlsx	47	kommentár	tartalmas	10	4	2	2449	9	3	2	883	9	3	7	1.65	3.6	2.9	5.2	0.767767847
622.3635410537827	2.0	BASELINE	1.6241908005940786	StimuliTable-2880-Mapping-Run2.xlsx	15	csecsemő	egészséges	8	1	2	2039	8	3	2	7076	10	4	8	2.6	6.5	6.55	6.6	1.0
630.3629311685181	2.0	BASELINE	1.408476354972663	StimuliTable-2880-Mapping-Run2.xlsx	70	pisztoly	törvénytelen	6	1	2	1679	8	2	3	1475	12	4	3	4.75	4.9	4.9	5.3	1.0
638.3633189746051	2.0	DISTANT	1.5124578222457783	StimuliTable-2880-Mapping-Run2.xlsx	69	pénztárca	alvilági	6	2	2	1902	9	3	3	393	8	4	3	3.55	2.25	2.8	2.6	0.690712929
646.3667472418765	2.0	CLOSE	1.6130107661010695	StimuliTable-2880-Mapping-Run2.xlsx	2	albérlet	siralmas	6	2	2	547	8	3	1	402	8	3	5	5.05	5.45	6.05	6.0	0.7793105840000001
