onset	duration	trial_type	response_time	stim_list	itemno	noun	adjective	order	response	correctness	noun_freq	noun_char	noun_syll	noun_phon	adj_freq	adj_char	adj_syll	adj_phon	arousal	concreteness	imageability	meaningfulness	cosine
22.08295172029466	2.0	FILLER	1.159855349913414	15_1	76	népcsoport	kétnyelvű	1	good		847	10	3	4	1121	9	3	1	1.85	5.55	4.5	6.55	0.0
26.083120263559977	2.0	REPEAT	0.9358603211730953	15_1	9	baktérium	növényi	1	good	1	1448	9	4	1	968	7	3	7	2.25	4.75	2.95	5.85	1.0
30.0832608870478	2.0	REPEAT	0.9998219793778844	15_1	10	barátnő	középkorú	1	good	1	3479	7	3	1	1253	9	4	8	1.95	5.9	5.5	6.1	1.0
36.08355750270857	2.0	CLOSE	0.9916504484281176	15_1	93	útmutatás	erkölcsi	1	good	1	703	9	4	2	4377	8	3	7	3.2	4.1	2.7	6.3	1.0
42.099818085967854	2.0	FILLER	1.0791638512091597	15_1	77	nézőpont	kézenfekvő	1	good		1480	8	3	1	875	10	4	1	2.05	3.9	2.25	4.45	0.0
48.10004016350285	2.0	DISTANT	1.119138830981683	15_1	68	ösztöndíj	tanulmányi	1	good	1	2344	9	3	1	1823	10	4	8	3.6	6.65	4.5	6.8	1.0
54.099332435456745	2.0	REPEAT	0.9589320504237548	15_1	11	barlang	lakatlan	1	good	1	1015	7	2	2	471	8	3	2	2.9	6.2	6.1	6.3	1.0
64.11577949212369	2.0	CLOSE	1.1105292924621608	15_1	94	vacsora	zártkörű	1	good	1	2517	7	3	1	562	8	3	1	2.45	5.85	5.4	6.9	1.0
74.11616755147406	2.0	FILLER	1.2222509388957403	15_1	78	nyereség	pillanatnyi	1	good		4712	8	3	5	1179	11	4	2	3.8	4.45	3.25	6.35	0.0
80.13245835981797	2.0	FILLER	1.3498258983890992	15_1	79	olvasmány	irodalmi	1	no-good		593	9	3	0	4601	8	4	7	2.85	5.4	6.35	6.85	0.0
88.13277367404953	2.0	FILLER	1.3658303368647466	15_1	80	operatőr	hivatásos	1	good		1019	8	4	2	3472	9	4	7	1.35	6.55	5.95	6.55	0.0
94.13309769720216	2.0	REPEAT	1.0615308441847446	15_1	12	benzinkút	hajnali	1	good	1	1490	9	3	1	3888	7	3	8	2.85	5.25	6.5	4.8	1.0
100.14929270739958	2.0	REPEAT	1.7176093392481562	15_1	13	bölcsőde	szomszédos	1	good	1	1219	8	3	1	5450	10	3	7	1.7	6.1	5.1	6.55	1.0
108.148650040137	2.0	DISTANT	1.2051806819727062	15_1	69	pénztárca	ismeretlen	1	good	1	1902	9	3	3	17883	10	4	7	3.55	4.9	4.9	6.15	1.0
114.1488997812994	2.0	FILLER	1.1328881707740948	15_1	81	őrmester	méltatlan	1	good		552	8	3	1	1723	9	3	2	3.5	4.7	3.3	5.3	0.0
122.165277678876	2.0	REPEAT	1.7405150866761687	15_1	14	boríték	érvénytelen	1	good	0	1364	7	3	3	1401	11	4	2	2.8	4.1	4.1	3.4	1.0
130.16562859722762	2.0	CLOSE	1.2765277627622709	15_1	95	végállomás	ideiglenes	1	good	1	893	10	4	4	4073	10	5	1	2.95	4.15	3.65	4.7	1.0
138.16893798785895	2.0	CLOSE	1.241102170519298	15_1	96	ventilátor	masszív	1	good	1	1165	10	4	3	982	7	2	2	1.6	4.5	5.6	5.5	1.0
148.18138278225524	2.0	FILLER	1.3718456409987994	15_1	82	országrész	középső	1	good		1927	10	3	3	3447	7	3	1	1.4	6.0	5.65	6.75	0.0
156.18172934614995	2.0	FILLER	1.3318219937136746	15_1	83	pályafutás	dicséretes	1	good		3897	10	4	5	469	10	4	8	3.05	4.7	4.6	5.5	0.0
166.19818741703784	2.0	REPEAT	1.5551620602418552	15_1	15	csecsemő	egészséges	1	good	0	2039	8	3	2	7076	10	4	8	2.6	6.5	6.55	6.6	1.0
172.19844740399276	2.0	DISTANT	1.3872230370470788	15_1	70	pisztoly	törvénytelen	1	good	1	1679	8	2	3	1475	12	4	3	4.75	4.9	4.9	5.3	1.0
178.2016702176843	2.0	REPEAT	1.3678006025584182	15_1	16	csengőhang	többféle	1	good	1	2279	10	3	1	2956	8	3	1	2.25	4.55	3.55	5.8	1.0
190.2142215683125	2.0	FILLER	1.1785154975295882	15_1	84	parancs	vitathatatlan	1	good		4012	7	2	4	667	13	5	1	4.3	5.7	3.1	6.05	0.0
196.21450230299524	2.0	REPEAT	1.2105077250671457	15_1	10	barátnő	középkorú	2	good	1	3479	7	3	1	1253	9	4	8	1.95	5.9	5.5	6.1	1.0
202.23072087851324	2.0	REPEAT	0.9458197427156848	15_1	9	baktérium	növényi	2	good	1	1448	9	4	1	968	7	3	7	2.25	4.75	2.95	5.85	1.0
212.2311427489767	2.0	DISTANT	1.289820652542403	15_1	68	ösztöndíj	partnerségi	2	good	1	2344	9	3	1	465	11	4	3	2.05	4.7	2.1	4.3	0.680144787
216.23031668204203	2.0	CLOSE	1.329819966071227	15_1	93	útmutatás	szellemi	2	good	1	703	9	4	2	6915	8	3	7	3.0	2.9	2.85	5.0	0.7834023237000001
222.2475672649016	2.0	CLOSE	1.2171436680218903	15_1	94	vacsora	meghívásos	2	good	1	2517	7	3	1	352	10	4	5	2.1	5.8	4.1	6.45	0.7889098529999999
226.24678551101533	2.0	REPEAT	0.9611999563494464	15_1	11	barlang	lakatlan	2	good	1	1015	7	2	2	471	8	3	2	2.9	6.2	6.1	6.3	1.0
230.2469812056297	2.0	DISTANT	1.1532647445856128	15_1	71	professzor	közgazdasági	1	good	1	6091	10	3	5	1411	12	5	4	1.9	6.5	5.5	6.65	1.0
238.2502685678046	2.0	REPEAT	1.1817308830140971	15_1	12	benzinkút	hajnali	2	good	1	1490	9	3	1	3888	7	3	8	2.85	5.25	6.5	4.8	1.0
248.26374024664256	2.0	FILLER	1.4405288160342025	15_1	85	párbeszéd	kötetlen	1	good		6299	9	3	3	695	8	3	5	2.4	5.3	4.4	6.65	0.0
260.2632535715529	2.0	FILLER	1.280534891790012	15_1	86	pontszám	egyenlő	1	good		1320	8	2	3	4474	7	3	1	2.5	6.1	5.25	5.9	0.0
270.2636908107015	2.0	REPEAT	1.120525598853419	15_1	14	boríték	érvénytelen	2	good	0	1364	7	3	3	1401	11	4	2	2.8	4.1	4.1	3.4	1.0
274.26386422071664	2.0	DISTANT	1.4002728454288444	15_1	69	pénztárca	alvilági	2	good	1	1902	9	3	3	393	8	4	3	3.55	2.25	2.8	2.6	0.690712929
282.28019012090226	2.0	REPEAT	1.0958729439953458	15_1	13	bölcsőde	szomszédos	2	good	1	1219	8	3	1	5450	10	3	7	1.7	6.1	5.1	6.55	1.0
288.2794347499293	2.0	CLOSE	1.4317745557054875	15_1	96	ventilátor	erőteljes	2	good	1	1165	10	4	3	3772	9	4	1	2.75	5.75	5.6	5.45	0.84082365
292.2796440202219	2.0	REPEAT	1.487889730691677	15_1	17	csillagász	figyelmes	1	good	1	606	10	3	4	1273	9	3	8	1.9	4.4	4.85	5.8	1.0
300.2799895595381	2.0	CLOSE	1.0398233420710312	15_1	95	végállomás	átmeneti	2	good	1	893	10	4	4	6049	8	4	7	3.4	3.25	3.15	4.3	0.847806394
306.2792452027861	2.0	REPEAT	1.6638568437556387	15_1	15	csecsemő	egészséges	2	good	0	2039	8	3	2	7076	10	4	8	2.6	6.5	6.55	6.6	1.0
316.2796447886576	2.0	DISTANT	0.8715641378876171	15_1	70	pisztoly	ellenséges	2	good	1	1679	8	2	3	1644	10	4	8	4.95	4.35	4.55	4.35	0.6924996379999999
326.29611003160244	2.0	FILLER	1.3592246190019068	15_1	87	protokoll	sebészeti	1	good		1295	9	3	3	459	9	4	5	4.45	5.6	3.3	6.25	0.0
334.296472732618	2.0	REPEAT	1.350942433506134	15_1	16	csengőhang	többféle	2	good	1	2279	10	3	1	2956	8	3	1	2.25	4.55	3.55	5.8	1.0
342.31277173759736	2.0	CLOSE	0.9745025796291884	15_1	97	világítás	hangulatos	1	good	1	1393	9	4	5	1112	10	4	5	2.95	5.9	6.4	6.85	1.0
350.31215468480514	2.0	REPEAT	1.4705236265435817	15_1	18	csomagolás	ízléses	1	good	1	1577	10	4	4	472	7	3	7	1.35	5.8	6.1	6.05	1.0
356.31237804306147	2.0	REPEAT	1.4942492934278562	15_1	19	diáklány	ártatlan	1	good	1	819	8	3	4	2035	8	3	5	2.8	5.3	5.35	6.6	1.0
360.3285881658012	2.0	REPEAT	1.28584835921356	15_1	20	diktátor	kegyetlen	1	good	1	1821	8	3	4	1493	9	3	2	6.0	5.8	6.2	6.7	1.0
368.3289109082325	2.0	FILLER	1.4938686622772366	15_1	88	pszichiáter	hűséges	1	good		814	11	4	4	1248	7	3	2	2.55	4.9	3.05	5.05	0.0
378.33233044111694	2.0	REPEAT	1.250424559977546	15_1	21	díszlet	színpadi	1	good	1	1420	7	2	3	1542	8	3	5	2.1	5.9	6.35	6.75	1.0
384.34560309545486	2.0	DISTANT	1.4531500941884588	15_1	71	professzor	alkotmányügyi	2	good	1	6091	10	3	5	1277	13	5	2	2.45	5.65	3.5	3.95	0.640873194
390.34489511126594	2.0	REPEAT	1.4771846716830623	15_1	22	díszterem	patinás	1	good	1	1123	9	3	1	802	7	3	4	2.3	5.2	5.55	5.05	1.0
396.3451097606012	2.0	DISTANT	1.3011194551727383	15_1	72	rémálom	szomorú	1	good	1	769	7	3	1	3745	7	3	3	5.8	4.8	4.45	5.5	1.0
406.3615434977328	2.0	REPEAT	1.3964744744007476	15_1	23	egyenruha	rendőri	1	good	1	1598	9	4	1	6998	7	3	1	3.4	6.75	6.65	6.9	1.0
412.3618132181946	2.0	FILLER	1.1405433138279475	15_1	89	publicista	hiteles	1	good		1111	10	4	1	4985	7	3	8	1.7	4.2	3.1	5.35	0.0
424.3613329467262	2.0	CLOSE	1.4364965848217253	15_1	98	zarándok	keresztény	1	good	1	1047	8	3	2	7533	10	3	5	2.05	5.9	5.65	5.75	1.0
432.3616795106136	2.0	DISTANT	1.5325270578541677	15_1	73	repülőjegy	érvényes	1	good	0	590	10	4	0	10878	8	3	6	2.8	6.75	6.4	6.9	1.0
440.36104708914354	2.0	REPEAT	0.0	15_1	24	étterem	elegáns	1		1	4657	7	3	4	3281	7	3	1	2.55	6.1	6.75	6.9	1.0
448.3613718807319	2.0	FILLER	1.4124750707051137	15_1	90	rokonság	tipikus	1	good		777	8	3	3	1673	7	3	3	2.95	4.25	3.65	3.5	0.0
454.3616715701282	2.0	REPEAT	0.9322279319749214	15_1	17	csillagász	figyelmes	2	good	1	606	10	3	4	1273	9	3	8	1.9	4.4	4.85	5.8	1.0
464.3780863525535	2.0	CLOSE	1.2357597587324562	15_1	99	zeneszerző	nagyszerű	1	good	0	2295	10	4	1	4154	9	3	1	2.35	5.5	5.55	6.65	1.0
470.3773135637312	2.0	DISTANT	1.035794184586848	15_1	74	sütemény	születésnapi	1	good	0	1032	8	3	3	731	12	5	2	2.65	6.75	6.7	6.6	1.0
478.380660095354	2.0	REPEAT	1.128456353697402	15_1	25	fejedelem	történelmi	1	good	1	903	9	4	3	14910	10	4	7	1.85	5.25	5.15	6.2	1.0
488.3941251144279	2.0	CLOSE	0.9711534865637076	15_1	97	világítás	családias	2	good	1	1393	9	4	5	351	9	4	4	2.7	3.55	3.95	2.95	0.78756988
500.3936491974164	2.0	FILLER	1.187138355584466	15_1	91	rosszullét	klinikai	1	good		742	10	3	1	1131	8	4	2	5.9	5.0	4.25	4.1	0.0
506.3938720433798	2.0	REPEAT	1.7071202102815732	15_1	18	csomagolás	ízléses	2	good	1	1577	10	4	4	472	7	3	7	1.35	5.8	6.1	6.05	1.0
514.3942508815162	2.0	REPEAT	1.1468700900222757	15_1	20	diktátor	kegyetlen	2	good	1	1821	8	3	4	1493	9	3	2	6.0	5.8	6.2	6.7	1.0
520.3934916683793	2.0	REPEAT	0.8751130238888436	15_1	19	diáklány	ártatlan	2	good	1	819	8	3	4	2035	8	3	5	2.8	5.3	5.35	6.6	1.0
526.3937744522191	2.0	FILLER	1.4351625827839598	15_1	92	sorrend	javítási	1	good		3666	7	2	5	518	8	4	4	1.75	4.75	3.65	6.15	0.0
532.3929967966469	2.0	DISTANT	1.194932585254719	15_1	75	szabadidő	kellemes	1	good	1	1588	9	4	1	5875	8	3	8	3.6	4.9	5.65	6.15	1.0
538.3932890578508	2.0	CLOSE	1.467139441636391	15_1	100	zöldség	rendszeres	1	good	1	2637	7	2	3	5423	10	3	8	1.9	2.0	2.65	2.4	1.0
542.4094866294981	2.0	FILLER	0.0	15_1	93	sorsolás	helytelen	1			1643	8	3	4	1039	9	3	3	4.05	4.6	3.0	5.65	0.0
550.4097883680515	2.0	FILLER	1.2104728893755237	15_1	94	szállítás	időigényes	1	good		4813	9	3	5	395	10	5	1	3.15	5.6	4.15	5.9	0.0
556.410036316207	2.0	REPEAT	1.066201388202899	15_1	21	díszlet	színpadi	2	good	1	1420	7	2	3	1542	8	3	5	2.1	5.9	6.35	6.75	1.0
560.413209950093	2.0	REPEAT	0.8948044104035944	15_1	22	díszterem	patinás	2	good	1	1123	9	3	1	802	7	3	4	2.3	5.2	5.55	5.05	1.0
566.4265043767446	2.0	REPEAT	1.0418532894909731	15_1	23	egyenruha	rendőri	2	good	1	1598	9	4	1	6998	7	3	1	3.4	6.75	6.65	6.9	1.0
574.4258158595621	2.0	DISTANT	0.9775734994691448	15_1	72	rémálom	erőszakos	2	good	1	769	7	3	1	4257	9	4	1	6.5	4.55	5.7	6.0	0.626735747
580.4300863054232	2.0	FILLER	1.4861976382453577	15_1	95	szekrény	kaotikus	1	good		1129	8	2	4	699	8	4	1	2.75	4.25	5.85	5.1	0.0
592.4426058940953	2.0	CLOSE	1.0091932924915454	15_1	98	zarándok	vallásos	2	good	1	1047	8	3	2	1343	8	3	5	2.25	5.35	5.7	5.8	0.8485714790000001
600.4459731734387	2.0	FILLER	1.245555759902345	15_1	96	szenzor	mágneses	1	good		959	7	2	3	692	8	3	6	1.55	5.1	3.95	5.4	0.0
606.4592017708783	2.0	DISTANT	1.1285032281884924	15_1	73	repülőjegy	azonnali	2	good	0	590	10	4	0	6934	8	4	2	2.4	6.0	5.7	6.2	0.665511608
614.4595485909158	2.0	REPEAT	1.3442058256550808	15_1	24	étterem	elegáns	2	good	1	4657	7	3	4	3281	7	3	1	2.55	6.1	6.75	6.9	1.0
618.4627537306151	2.0	CLOSE	1.5090319212758914	15_1	99	zeneszerző	fantasztikus	2	good	0	2295	10	4	1	3000	12	4	2	2.9	5.6	5.2	6.75	0.9369357229999999
624.4750281887318	2.0	FILLER	1.327848931956396	15_1	97	szerencse	viszonylagos	1	good		5746	9	3	1	698	12	4	3	3.2	3.45	2.45	3.85	0.0
630.4752889441224	2.0	DISTANT	1.0878125798844849	15_1	74	sütemény	házassági	2	good	0	1032	8	3	3	422	9	4	6	2.4	4.05	4.5	2.7	0.659826398
640.4787064278498	2.0	FILLER	1.2602502739464398	15_1	98	szivárgás	fokozatos	1	good		520	9	3	1	1177	9	4	7	4.05	5.25	4.35	6.25	0.0
648.4920684767203	2.0	REPEAT	1.1271886931499466	15_1	25	fejedelem	történelmi	2	good	1	903	9	4	3	14910	10	4	7	1.85	5.25	5.15	6.2	1.0
654.4912813437913	2.0	FILLER	1.4311713347342447	15_1	99	szörnyeteg	láthatatlan	1	good		531	10	3	0	1239	11	4	4	4.55	3.3	4.05	5.35	0.0
664.4917452220034	2.0	FILLER	1.2711879124253755	15_1	100	táplálék	elégséges	1	good		945	8	3	3	1780	9	4	5	3.3	4.95	4.65	6.2	0.0
672.4911069091977	2.0	CLOSE	0.0	15_1	100	zöldség	gyakori	2		1	2637	7	2	3	6043	7	3	1	1.45	4.1	3.9	5.0	0.840808868
684.4916158688866	2.0	DISTANT	1.3351590479869628	15_1	75	szabadidő	gyermekkori	2	good	1	1588	9	4	1	470	11	4	7	4.0	5.55	5.3	6.15	0.641961992
