onset	duration	trial_type	response_time	stim_list	itemno	noun	adjective	jitter	response	counterbalance	noun_freq	noun_char	noun_syll	noun_phon	adj_freq	adj_char	adj_syll	adj_phon	arousal	concreteness	imageability	meaningfulness	cosine
28.03239922613284	2.0	BASELINE	1.406249415664206	StimuliTable-2880-Mapping-Run6.xlsx	45	kolostor	hajdani	10	3	2	1099	8	3	4	1367	7	3	7	2.3	4.65	5.65	5.75	1.0
40.03300834295442	2.0	BASELINE	1.6302279218834883	StimuliTable-2880-Mapping-Run6.xlsx	13	bölcsőde	szomszédos	10	2	2	1219	8	3	1	5450	10	3	7	1.7	6.1	5.1	6.55	1.0
50.03251782204825	2.0	DISTANT	1.374280772117345	StimuliTable-2880-Mapping-Run6.xlsx	78	szemüveg	elsődleges	8	1	2	1594	8	3	4	6398	10	4	1	2.3	4.25	3.75	3.75	0.657139182
62.03310081191012	2.0	BASELINE	1.7342483234569954	StimuliTable-2880-Mapping-Run6.xlsx	93	útmutatás	erkölcsi	10	3	2	703	9	4	2	4377	8	3	7	3.2	4.1	2.7	6.3	1.0
74.03573604903795	2.0	BASELINE	1.5305576595164894	StimuliTable-2880-Mapping-Run6.xlsx	70	pisztoly	törvénytelen	10	3	2	1679	8	2	3	1475	12	4	3	4.75	4.9	4.9	5.3	1.0
82.04912867862004	2.0	CLOSE	1.4055614056596824	StimuliTable-2880-Mapping-Run6.xlsx	43	kolbász	méternyi	6	3	2	867	7	2	2	324	8	3	1	2.75	5.95	6.65	5.85	0.762132525
92.04962278558014	2.0	CLOSE	1.3573241175181463	StimuliTable-2880-Mapping-Run6.xlsx	61	művészet	látványos	8	3	2	6299	8	3	1	6475	9	3	4	3.7	4.15	5.45	5.65	0.801142275
104.0492201229863	2.0	DISTANT	1.6535813277259876	StimuliTable-2880-Mapping-Run6.xlsx	79	szerszám	illegális	10	3	2	812	8	2	4	5833	9	4	1	3.8	4.1	3.65	5.05	0.606139541
116.0528761046662	2.0	BASELINE	1.4660601796131232	StimuliTable-2880-Mapping-Run6.xlsx	5	állatkert	egzotikus	10	4	2	2056	9	3	3	643	9	4	1	2.95	5.45	5.6	6.45	1.0
128.06547467951896	2.0	BASELINE	1.6289325880825345	StimuliTable-2880-Mapping-Run6.xlsx	16	csengőhang	többféle	10	2	2	2279	10	3	1	2956	8	3	1	2.25	4.55	3.55	5.8	1.0
136.06888040588092	2.0	CLOSE	0.0	StimuliTable-2880-Mapping-Run6.xlsx	18	csomagolás	tetszetős	6	0	2	1577	10	4	4	725	9	3	1	2.1	5.45	6.35	6.25	0.890869737
144.082282769039	2.0	DISTANT	1.3642810615638157	StimuliTable-2880-Mapping-Run6.xlsx	15	csecsemő	tevékeny	6	2	2	2039	8	3	2	403	8	3	2	2.4	4.65	4.65	4.15	0.655481756
152.0826562309121	2.0	BASELINE	1.1879642818821594	StimuliTable-2880-Mapping-Run6.xlsx	81	szőnyeg	használati	6	1	2	1303	7	2	1	1806	10	4	5	1.9	3.55	4.25	3.8	1.0
162.08217621201766	2.0	DISTANT	1.8202623812976528	StimuliTable-2880-Mapping-Run6.xlsx	64	novella	körülményes	8	2	2	925	7	3	1	379	11	4	6	3.1	3.75	2.55	3.95	0.6815447809999999
174.0818188873891	2.0	DISTANT	1.179963540082099	StimuliTable-2880-Mapping-Run6.xlsx	8	aszfalt	költséges	10	2	2	977	7	2	4	1185	9	3	7	3.0	4.4	3.5	4.8	0.619830132
186.09841719277392	2.0	CLOSE	1.1716295514379451	StimuliTable-2880-Mapping-Run6.xlsx	58	műanyag	értelmetlen	10	2	2	3590	7	3	1	1912	11	4	2	3.0	3.65	3.75	2.75	0.908448935
194.0987863001501	2.0	DISTANT	1.4512525957252365	StimuliTable-2880-Mapping-Run6.xlsx	51	magazin	állatorvosi	6	3	2	7307	7	3	2	356	11	5	6	1.6	5.7	5.95	6.65	0.735963702
204.11533055858308	2.0	CLOSE	1.186924838621053	StimuliTable-2880-Mapping-Run6.xlsx	95	végállomás	átmeneti	8	3	2	893	10	4	4	6049	8	4	7	3.4	3.25	3.15	4.3	0.847806394
214.11484797822413	2.0	CLOSE	1.346684296389867	StimuliTable-2880-Mapping-Run6.xlsx	87	tévéműsor	hihetetlen	8	2	2	648	9	4	1	3434	10	4	2	3.2	3.95	4.3	5.2	0.7619771956999999
224.13135663226785	2.0	BASELINE	1.2663103324703116	StimuliTable-2880-Mapping-Run6.xlsx	55	mikrofon	vezetékes	8	3	2	1847	8	3	1	3193	9	4	8	1.25	6.45	6.75	6.25	1.0
234.1318832698562	2.0	CLOSE	1.2019813970910036	StimuliTable-2880-Mapping-Run6.xlsx	17	csillagász	türelmes	8	3	2	606	10	3	4	495	8	3	7	2.2	4.5	4.55	5.3	0.7566338779999999
244.1483232765895	2.0	CLOSE	1.153570441492775	StimuliTable-2880-Mapping-Run6.xlsx	19	diáklány	védtelen	8	3	2	819	8	3	4	650	8	3	5	4.7	5.4	6.25	6.05	0.762401283
254.14889192223563	2.0	BASELINE	1.4973518274637172	StimuliTable-2880-Mapping-Run6.xlsx	42	kirándulás	hétvégi	8	4	2	1896	10	4	4	4177	7	3	5	2.95	6.05	6.3	6.9	1.0
266.1644400262012	2.0	BASELINE	1.6809395870368462	StimuliTable-2880-Mapping-Run6.xlsx	52	matrica	fizetős	10	3	2	1479	7	3	2	2152	7	3	2	2.75	5.8	5.4	5.6	1.0
274.16484525025953	2.0	DISTANT	1.416637956892373	StimuliTable-2880-Mapping-Run6.xlsx	66	oroszlán	jelentéktelen	6	1	2	1351	8	3	3	1068	13	5	3	4.0	3.05	3.55	3.15	0.658192992
284.1813992422685	2.0	CLOSE	1.4802373865059053	StimuliTable-2880-Mapping-Run6.xlsx	10	barátnő	tizenéves	8	3	2	3479	7	3	1	940	9	4	2	3.85	5.45	5.9	6.2	0.8318079709999999
292.1817957573403	2.0	CLOSE	1.448114798797178	StimuliTable-2880-Mapping-Run6.xlsx	3	alkatrész	technikai	6	3	2	2625	9	3	2	7859	9	4	3	2.15	4.85	4.45	5.45	0.8308419585
304.1814035967618	2.0	DISTANT	1.9042567225078528	StimuliTable-2880-Mapping-Run6.xlsx	53	mellény	kamionos	10	3	2	909	7	2	5	543	8	4	7	1.4	6.25	5.7	6.1	0.629222572
316.1849758184726	2.0	DISTANT	1.3727595169366396	StimuliTable-2880-Mapping-Run6.xlsx	69	pénztárca	alvilági	10	1	2	1902	9	3	3	393	8	4	3	3.55	2.25	2.8	2.6	0.690712929
324.1974145577915	2.0	CLOSE	1.6955717104428911	StimuliTable-2880-Mapping-Run6.xlsx	21	díszlet	művészi	6	3	2	1420	7	2	3	2366	7	3	1	1.7	5.7	5.8	6.05	0.82010299
332.19782413634675	2.0	CLOSE	1.5355463724117726	StimuliTable-2880-Mapping-Run6.xlsx	99	zeneszerző	fantasztikus	6	4	2	2295	10	4	1	3000	12	4	2	2.9	5.6	5.2	6.75	0.9369357229999999
340.1972457571246	2.0	BASELINE	1.4395643662028306	StimuliTable-2880-Mapping-Run6.xlsx	47	kommentár	terjedelmes	6	3	2	2449	9	3	2	699	11	4	5	2.2	4.4	4.0	5.3	1.0
348.1976351000885	2.0	BASELINE	1.631551687969477	StimuliTable-2880-Mapping-Run6.xlsx	18	csomagolás	ízléses	6	3	2	1577	10	4	4	472	7	3	7	1.35	5.8	6.1	6.05	1.0
356.2010362158144	2.0	CLOSE	1.6120742938073818	StimuliTable-2880-Mapping-Run6.xlsx	77	szélvihar	váratlan	6	4	2	490	9	3	0	2782	8	3	8	4.2	6.1	5.9	6.65	0.850282848
366.21452336352377	2.0	DISTANT	1.566904106108268	StimuliTable-2880-Mapping-Run6.xlsx	88	törmelék	életveszélyes	8	4	2	730	8	3	1	3907	13	5	3	4.75	5.8	6.2	6.4	0.657350659
374.2139547178776	2.0	DISTANT	1.2066783589107215	StimuliTable-2880-Mapping-Run6.xlsx	5	állatkert	alternatív	6	1	2	2056	9	3	3	4055	10	4	1	2.15	2.55	2.75	2.7	0.67844069
382.2303568149	2.0	CLOSE	1.6142968786225538	StimuliTable-2880-Mapping-Run6.xlsx	7	ásványvíz	színvonalas	6	2	2	963	9	3	1	1782	11	4	5	1.5	3.65	3.15	3.4	0.7986723179999999
390.230776895467	2.0	BASELINE	1.3262696615020104	StimuliTable-2880-Mapping-Run6.xlsx	68	ösztöndíj	tanulmányi	6	4	2	2344	9	3	1	1823	10	4	8	3.6	6.65	4.5	6.8	1.0
402.230338116191	2.0	DISTANT	1.5342430980635982	StimuliTable-2880-Mapping-Run6.xlsx	41	királynő	példátlan	10	2	2	2060	8	3	2	2102	9	3	1	2.55	4.55	4.6	5.3	0.661574185
414.2309782267657	2.0	BASELINE	1.6140099943295354	StimuliTable-2880-Mapping-Run6.xlsx	60	mutatvány	szánalmas	10	2	2	716	9	3	3	685	9	3	4	4.45	4.9	3.5	6.1	1.0
422.2473841659885	2.0	DISTANT	1.1896049014176242	StimuliTable-2880-Mapping-Run6.xlsx	38	kerékpár	hardveres	6	1	2	3466	8	3	3	1550	9	3	5	1.65	2.65	1.5	2.4	0.6436905860000001
434.246985345595	2.0	BASELINE	1.5093435908129322	StimuliTable-2880-Mapping-Run6.xlsx	39	készpénz	csekély	10	2	2	3600	8	2	3	3258	7	2	2	4.95	4.5	5.7	6.15	1.0
444.2634696657005	2.0	CLOSE	1.3169044262904208	StimuliTable-2880-Mapping-Run6.xlsx	98	zarándok	vallásos	8	4	2	1047	8	3	2	1343	8	3	5	2.25	5.35	5.7	5.8	0.8485714790000001
456.2671361493958	2.0	DISTANT	1.3854172616738651	StimuliTable-2880-Mapping-Run6.xlsx	17	csillagász	tisztességes	10	2	2	606	10	3	4	3762	12	4	7	1.35	4.4	3.5	5.45	0.601381719
464.280531340446	2.0	CLOSE	1.3402872890037545	StimuliTable-2880-Mapping-Run6.xlsx	67	osztályzat	átlagos	6	3	2	1028	10	3	3	10804	7	3	7	3.35	5.85	5.35	6.5	0.816440403
474.2800380019253	2.0	BASELINE	1.364019535794796	StimuliTable-2880-Mapping-Run6.xlsx	87	tévéműsor	félelmetes	8	2	2	648	9	4	1	1112	10	4	2	5.45	5.8	5.05	6.6	1.0
484.296521297445	2.0	BASELINE	1.1316161088616354	StimuliTable-2880-Mapping-Run6.xlsx	65	olimpikon	legendás	8	4	2	644	9	4	2	3949	8	3	5	2.15	5.8	5.5	6.6	1.0
492.2969413780156	2.0	DISTANT	1.3873537306353685	StimuliTable-2880-Mapping-Run6.xlsx	10	barátnő	fiatalos	6	3	2	3479	7	3	1	622	8	4	3	1.7	5.85	6.5	6.55	0.690293968
500.29634711769904	2.0	BASELINE	1.1875749389146222	StimuliTable-2880-Mapping-Run6.xlsx	40	kesztyű	férfias	6	4	2	891	7	2	1	506	7	3	6	1.7	5.45	4.85	5.4	1.0
512.2969293391216	2.0	DISTANT	1.3633328065225214	StimuliTable-2880-Mapping-Run6.xlsx	55	mikrofon	köztéri	10	3	2	1847	8	3	1	615	7	3	2	1.65	5.9	5.5	5.45	0.60200268
522.296472117283	2.0	DISTANT	1.459619114997622	StimuliTable-2880-Mapping-Run6.xlsx	54	menetrend	naprakész	8	2	2	4833	9	3	2	816	9	3	1	2.3	5.35	4.4	6.1	0.7033958440000001
530.2968681200618	2.0	CLOSE	1.3955932011522236	StimuliTable-2880-Mapping-Run6.xlsx	64	novella	beszédes	6	2	2	925	7	3	1	637	8	3	7	3.3	4.4	3.75	4.9	0.783685148
542.2964398427976	2.0	CLOSE	1.4915708528642426	StimuliTable-2880-Mapping-Run6.xlsx	78	szemüveg	ideális	10	2	2	1594	8	3	4	3414	7	4	1	1.9	5.3	5.0	5.5	0.84095335
552.2969833860698	2.0	DISTANT	1.7793339827512682	StimuliTable-2880-Mapping-Run6.xlsx	6	áruházlánc	kockázatos	8	2	2	935	10	4	2	2073	10	4	4	3.05	2.95	2.7	3.7	0.71600765
564.2965551088091	2.0	BASELINE	1.3556112646147085	StimuliTable-2880-Mapping-Run6.xlsx	53	mellény	sportos	10	3	2	909	7	2	5	700	7	2	7	1.45	5.9	6.0	6.0	1.0
576.3001754860961	2.0	BASELINE	1.3199646107714216	StimuliTable-2880-Mapping-Run6.xlsx	80	színdarab	humoros	10	4	2	571	9	3	1	799	7	3	7	2.85	5.95	5.95	6.8	1.0
586.3126705776849	2.0	DISTANT	1.5149188796240196	StimuliTable-2880-Mapping-Run6.xlsx	7	ásványvíz	nagysikerű	8	2	2	963	9	3	1	627	10	4	1	1.35	4.75	4.35	5.75	0.66301918
596.3162151355573	2.0	DISTANT	1.2553946413572703	StimuliTable-2880-Mapping-Run6.xlsx	63	napsütés	hosszas	8	3	2	3340	8	3	2	1776	7	2	7	2.9	5.35	6.4	6.35	0.72304523
606.3297325085769	2.0	CLOSE	1.1862808858459175	StimuliTable-2880-Mapping-Run6.xlsx	38	kerékpár	intelligens	8	1	2	3466	8	3	3	2053	11	4	1	1.9	3.15	2.8	3.4	0.787231982
616.3332255809619	2.0	CLOSE	1.3266472217146656	StimuliTable-2880-Mapping-Run6.xlsx	66	oroszlán	csendes	8	2	2	1351	8	3	3	2305	7	2	7	2.15	5.45	5.7	6.3	0.851599276
628.345836963148	2.0	DISTANT	1.5376536912153824	StimuliTable-2880-Mapping-Run6.xlsx	77	szélvihar	kíméletlen	10	2	2	490	9	3	0	564	10	4	2	5.5	5.75	6.05	6.5	0.6293716429999999
638.349345660481	2.0	BASELINE	1.6301103505538777	StimuliTable-2880-Mapping-Run6.xlsx	76	szakadék	iszonyatos	8	3	2	1478	8	3	4	452	10	4	6	5.1	4.75	5.85	5.65	1.0
646.3797589813366	2.0	CLOSE	1.1522054357919842	StimuliTable-2880-Mapping-Run6.xlsx	52	matrica	ingyenes	6	2	2	1479	7	3	2	13952	8	3	1	2.65	6.2	4.8	6.5	0.863539815
