onset	duration	trial_type	response_time	stim_list	itemno	noun	adjective	order	response	correctness	noun_freq	noun_char	noun_syll	noun_phon	adj_freq	adj_char	adj_syll	adj_phon	arousal	concreteness	imageability	meaningfulness	cosine
22.088970303273527	1.006948455611564	TARGET	1.006948455611564	6_1	1	akadály	lehetetlen		old	1	6030	7	3	2	5822	10	4	6	5.4	4.65	3.6	6.3	1.0
34.099528103371995	1.09248461783136	FOIL	1.09248461783136	6_1	38	gyűjtemény	sokszínű		new	1	3860	10	3	1	1038	8	3	1	2.15	4.4	5.1	5.65	0.0
40.11578872412065	1.0678465064229383	DISTANT	1.0678465064229383	6_1	63	napsütés	hosszas		new	1	3340	8	3	2	1776	7	2	7	2.9	5.35	6.4	6.35	0.72304523
48.116167050840886	0.9798782438592752	TARGET	0.9798782438592752	6_1	2	albérlet	szegényes		old	1	547	8	3	1	439	9	3	7	4.5	5.55	6.5	6.05	1.0
58.1156224857732	1.1238281028890924	TARGET	1.1238281028890924	6_1	3	alkatrész	műszaki		old	1	2625	9	3	2	11955	7	3	1	1.6	5.9	5.6	6.45	1.0
68.1160689471617	1.0518625226795848	DISTANT	1.0518625226795848	6_1	64	novella	körülményes		old	0	925	7	3	1	379	11	4	6	3.1	3.75	2.55	3.95	0.6815447809999999
72.11622365896983	1.2118219799885992	DISTANT	1.2118219799885992	6_1	65	olimpikon	bravúros		new	1	644	9	4	2	461	8	3	2	2.9	5.15	5.5	6.5	0.613806427
82.11570137854869	1.0438059821717616	FOIL	1.0438059821717616	6_1	39	gyulladás	fájdalmas		new	1	756	9	3	3	2001	9	3	6	5.0	5.85	4.6	6.55	0.0
92.11615629273729	1.2035477159115544	FOIL	1.2035477159115544	6_1	40	gyűlölet	mélységes		new	1	2004	8	3	1	415	9	3	6	6.2	5.7	3.2	6.35	0.0
102.1156119838124	1.0998436744739593	FOIL	1.0998436744739593	6_1	41	hadjárat	szerencsétlen		old	0	1413	8	3	4	2074	13	4	3	4.7	5.2	4.25	5.85	0.0
106.11581024033148	1.1878549694629328	CLOSE	1.1878549694629328	6_1	26	fejfájás	borzalmas		old	0	1351	8	3	4	1061	9	3	6	5.8	5.95	6.0	6.75	0.831396163
110.11499390501922	0.8917839577661653	TARGET	0.8917839577661653	6_1	4	alkohol	legális		old	1	3138	7	3	2	1848	7	3	3	2.75	5.45	5.2	5.3	1.0
120.11543370662912	0.9318499613109452	TARGET	0.9318499613109452	6_1	5	állatkert	egzotikus		old	1	2056	9	3	3	643	9	4	1	2.95	5.45	5.6	6.45	1.0
126.11472239092107	1.3238233385854985	TARGET	1.3238233385854985	6_1	6	áruházlánc	veszteséges		old	1	935	10	4	2	1234	11	4	8	2.7	4.85	4.1	5.9	1.0
138.11926871519609	1.0401548859845209	FOIL	1.0401548859845209	6_1	42	hátrány	mentális		new	1	7114	7	2	4	861	8	3	3	4.9	3.75	3.25	5.85	0.0
148.1317342860566	1.3791407500903006	FOIL	1.3791407500903006	6_1	43	havazás	folyamatos		new	1	3637	7	3	4	10275	10	4	6	3.85	6.45	6.8	6.9	0.0
158.13518174667115	1.0954822871644865	FOIL	1.0954822871644865	6_1	44	házastárs	eszméletlen		new	1	909	9	3	3	520	11	4	3	5.8	5.55	5.05	5.4	0.0
164.1484649335689	1.0824972534828703	DISTANT	1.0824972534828703	6_1	66	oroszlán	jelentéktelen		old	0	1351	8	3	3	1068	13	5	3	4.0	3.05	3.55	3.15	0.658192992
170.1477246734321	1.2904934461366793	CLOSE	1.2904934461366793	6_1	27	folyadék	optimális		new	1	1438	8	3	3	1679	9	4	2	1.8	3.5	3.45	3.25	0.841039181
178.1520824747131	0.9427776353331864	FOIL	0.9427776353331864	6_1	45	hazugság	kisebbik		new	1	3451	8	3	4	1351	8	3	4	4.65	3.05	2.4	5.7	0.0
188.16453856819132	1.273818894460419	TARGET	1.273818894460419	6_1	7	ásványvíz	minőségi		old	1	963	9	3	1	4832	8	4	2	1.85	6.05	5.25	6.4	1.0
192.16474322834983	0.8575019729614723	CLOSE	0.8575019729614723	6_1	28	gorilla	problémás		old	0	659	7	3	2	1593	9	3	8	3.3	4.7	4.55	4.65	0.775599658
200.1640810925528	0.9618117982099648	FOIL	0.9618117982099648	6_1	46	hercegnő	szigorú		new	1	1207	8	3	2	8605	7	3	6	2.45	5.35	5.4	6.4	0.0
206.1643843686761	1.0257766776048811	TARGET	1.0257766776048811	6_1	8	aszfalt	hibátlan		old	1	977	7	2	4	863	8	3	1	1.95	6.3	6.7	6.65	1.0
210.16456776876657	1.0178287427370378	TARGET	1.0178287427370378	6_1	9	baktérium	növényi		old	1	1448	9	4	1	968	7	3	7	2.25	4.75	2.95	5.85	1.0
216.1678267063835	1.1903795382859244	CLOSE	1.1903795382859244	6_1	29	hangszer	könnyűzenei		new	1	1828	8	2	3	420	11	5	1	2.1	6.1	6.2	6.25	0.7948508259999999
222.1810996474669	1.001154959500127	DISTANT	1.001154959500127	6_1	67	osztályzat	alapfokú		new	1	1028	10	3	3	821	8	4	4	2.6	4.3	2.9	3.95	0.713177145
228.1803632295123	1.1531157651588728	TARGET	1.1531157651588728	6_1	10	barátnő	középkorú		old	1	3479	7	3	1	1253	9	4	8	1.95	5.9	5.5	6.1	1.0
234.1806449894248	0.9928607160836692	DISTANT	0.9928607160836692	6_1	68	ösztöndíj	partnerségi		new	1	2344	9	3	1	465	11	4	3	2.05	4.7	2.1	4.3	0.680144787
242.19701267893836	1.2084951638462371	FOIL	1.2084951638462371	6_1	47	hetilap	közérdekű		new	1	3156	7	3	1	1687	9	4	4	2.55	6.0	6.0	5.75	0.0
254.1975595493168	1.0641972032535705	FOIL	1.0641972032535705	6_1	48	hirdetés	releváns		new	1	4687	8	3	4	763	8	3	1	2.15	5.15	4.55	6.3	0.0
262.2139251896697	1.0318142802607326	DISTANT	1.0318142802607326	6_1	69	pénztárca	alvilági		new	1	1902	9	3	3	393	8	4	3	3.55	2.25	2.8	2.6	0.690712929
272.21438010385464	0.8074767810612684	TARGET	0.8074767810612684	6_1	11	barlang	lakatlan		old	1	1015	7	2	2	471	8	3	2	2.9	6.2	6.1	6.3	1.0
280.2137448633257	2.0	TARGET	0.0	6_1	12	benzinkút	hajnali			0	1490	9	3	1	3888	7	3	8	2.85	5.25	6.5	4.8	1.0
288.2131083420645	1.1917655409160943	TARGET	1.1917655409160943	6_1	88	törmelék	építkezési		new	0	730	8	3	1	395	10	5	7	1.9	6.55	6.8	6.4	1.0
296.2134736053704	1.0715203995459888	FOIL	1.0715203995459888	6_1	49	irodaház	szemközti		new	1	942	8	4	3	638	9	3	4	1.45	6.65	6.3	6.6	0.0
300.2296484174185	1.279109833343682	DISTANT	1.279109833343682	6_1	70	pisztoly	ellenséges		old	0	1679	8	2	3	1644	10	4	8	4.95	4.35	4.55	4.35	0.6924996379999999
306.2299309457667	1.0071152062482724	FOIL	1.0071152062482724	6_1	50	játszma	belpolitikai		new	1	1655	7	2	1	2408	12	6	2	5.15	3.95	2.85	6.35	0.0
316.23339582426706	0.8676427683858492	TARGET	0.8676427683858492	6_1	89	tudomány	mérnöki		old	1	3986	8	3	5	877	7	3	6	1.7	4.75	3.4	6.0	1.0
326.2468432003516	1.150390122216777	CLOSE	1.150390122216777	6_1	30	háziorvos	türelmetlen		old	0	2011	9	4	4	480	11	4	1	4.55	6.25	5.95	6.6	0.7620039581999999
336.2463114425518	1.174376343642507	TARGET	1.174376343642507	6_1	90	tűzijáték	nagyszabású		old	1	1585	9	4	1	3070	11	4	1	2.9	6.2	6.9	6.6	1.0
348.26284665114144	1.3577531234986964	FOIL	1.3577531234986964	6_1	1	ábrázolás	szokatlan		new	1	839	9	4	4	3495	9	3	1	2.55	4.45	3.45	6.05	0.0
354.2631058702609	1.1494774762395537	CLOSE	1.1494774762395537	6_1	31	helyezés	jogerős		new	1	5834	8	3	4	4058	7	3	1	2.55	2.65	1.5	3.3	0.78364414
358.26628642739524	1.266254921512882	DISTANT	1.266254921512882	6_1	71	professzor	alkotmányügyi		new	1	6091	10	3	5	1277	13	5	2	2.45	5.65	3.5	3.95	0.640873194
366.2796679741186	1.0371146965189837	CLOSE	1.0371146965189837	6_1	32	horgász	hagyományos		new	1	707	7	2	2	15070	11	4	6	1.3	4.15	5.5	4.8	0.8027049303
376.2791234090473	1.1570637338372762	TARGET	1.1570637338372762	6_1	91	újságcikk	botrányos		old	1	503	9	3	0	1508	9	3	4	3.75	5.45	5.65	6.55	1.0
384.29547752285725	0.9967587364117207	TARGET	0.9967587364117207	6_1	92	útlezárás	helyszíni		old	1	1291	9	4	3	4087	9	3	7	3.75	6.6	6.45	6.5	1.0
390.2957500615376	1.2603835572117532	TARGET	1.2603835572117532	6_1	93	útmutatás	erkölcsi		old	1	703	9	4	2	4377	8	3	7	3.2	4.1	2.7	6.3	1.0
398.2991119695944	0.7929046706340159	CLOSE	0.7929046706340159	6_1	33	iránytű	előnyös		old	0	794	7	3	2	2414	7	3	1	1.35	2.9	3.25	2.35	0.8048268559999999
408.31256805462544	1.0039000694923743	FOIL	1.0039000694923743	6_1	2	adottság	pozitív		new	1	1928	8	3	3	10499	7	3	1	2.15	3.8	3.0	6.0	0.0
416.3119369124179	1.2277626751601929	FOIL	1.2277626751601929	6_1	3	alapanyag	folyékony		new	1	2168	9	4	4	612	9	3	1	1.75	5.6	5.6	6.45	0.0
422.3292308236123	1.595067715872574	TARGET	1.595067715872574	6_1	94	vacsora	zártkörű		old	1	2517	7	3	1	562	8	3	1	2.45	5.85	5.4	6.9	1.0
432.3286824163624	1.6110027758477372	CLOSE	1.6110027758477372	6_1	34	kánikula	márciusi		new	1	1200	8	4	1	2871	8	4	5	3.2	5.55	5.4	4.95	0.774796665
442.3281171035196	1.2031445430911845	TARGET	1.2031445430911845	6_1	95	végállomás	ideiglenes		new	0	893	10	4	4	4073	10	5	1	2.95	4.15	3.65	4.7	1.0
448.32840731622855	1.1309930013376288	TARGET	1.1309930013376288	6_1	96	ventilátor	masszív		old	1	1165	10	4	3	982	7	2	2	1.6	4.5	5.6	5.5	1.0
456.3287613091379	1.1870696277437671	TARGET	1.1870696277437671	6_1	97	világítás	hangulatos		old	1	1393	9	4	5	1112	10	4	5	2.95	5.9	6.4	6.85	1.0
460.3449502091789	1.0583839839455322	CLOSE	1.0583839839455322	6_1	35	kapitány	szorgalmas		old	0	6280	8	3	5	404	10	3	6	1.7	5.35	5.3	5.85	0.762966812
470.34542100438193	1.2504228319776305	FOIL	1.2504228319776305	6_1	4	államférfi	diszkrét		new	1	599	10	4	4	535	8	2	1	1.8	3.8	3.65	4.7	0.0
482.3449678832112	1.3624080534173115	CLOSE	1.3624080534173115	6_1	36	kastély	páratlan		new	1	2771	7	2	4	1654	8	3	8	3.15	4.3	4.8	4.95	0.825480223
492.3444179390899	1.0983923547792074	FOIL	1.0983923547792074	6_1	5	áramlat	belföldi		new	1	1372	7	3	2	3239	8	3	4	1.8	3.05	2.25	2.8	0.0
500.3447888375922	1.0583829593670089	FOIL	1.0583829593670089	6_1	6	asszisztens	tárgyalási		new	1	1083	11	3	4	2106	10	4	6	2.05	4.45	4.4	5.25	0.0
508.3441313124131	1.1704032727175218	DISTANT	1.1704032727175218	6_1	72	rémálom	erőszakos		old	0	769	7	3	1	4257	9	4	1	6.5	4.55	5.7	6.0	0.626735747
516.3445083584083	1.6663109661203634	CLOSE	1.6663109661203634	6_1	37	képregény	élvezetes		new	1	1156	9	3	5	1070	9	4	8	2.6	5.5	6.0	6.3	0.852174282
524.3608576054539	1.4657250591881166	TARGET	1.4657250591881166	6_1	98	zarándok	keresztény		old	1	1047	8	3	2	7533	10	3	5	2.05	5.9	5.65	5.75	1.0
534.361314056514	0.8734503524938191	DISTANT	0.8734503524938191	6_1	73	repülőjegy	azonnali		new	1	590	10	4	0	6934	8	4	2	2.4	6.0	5.7	6.2	0.665511608
540.3775910705663	1.4570314851334842	TARGET	1.4570314851334842	6_1	99	zeneszerző	nagyszerű		old	1	2295	10	4	1	4154	9	3	1	2.35	5.5	5.55	6.65	1.0
548.3769681250124	1.2250529132325028	FOIL	1.2250529132325028	6_1	7	bábszínház	virtuális		new	1	636	10	3	2	5945	9	4	1	1.85	4.6	4.95	4.6	0.0
554.3772411759819	1.240774091817002	FOIL	1.240774091817002	6_1	8	bankrablás	tavalyi		new	1	535	10	3	2	16956	7	3	7	3.8	5.35	4.15	6.15	0.0
560.3935156285806	0.8883787611448497	FOIL	0.8883787611448497	6_1	9	becslés	szakszerű		old	0	7246	7	2	4	968	9	3	2	2.1	5.25	2.4	6.0	0.0
564.3936985163782	1.200396615502541	TARGET	1.200396615502541	6_1	100	zöldség	rendszeres		old	1	2637	7	2	3	5423	10	3	8	1.9	2.0	2.65	2.4	1.0
572.3940461056554	1.2163496056491567	FOIL	1.2163496056491567	6_1	10	berendezés	egyszerű		old	0	6368	10	4	5	22554	8	3	3	1.5	5.45	5.7	6.15	0.0
578.3973337315547	1.5729116531547334	FOIL	1.5729116531547334	6_1	11	borvidék	csapadékos		new	1	827	8	3	2	840	10	4	4	2.55	5.5	6.15	5.65	0.0
586.4107104115137	1.6396429026099213	CLOSE	1.6396429026099213	6_1	13	bölcsőde	környékbeli		old	0	1219	8	3	1	1283	11	4	2	1.5	6.15	6.3	6.45	0.7846326231999999
594.4100656936025	1.151431865459017	FOIL	1.151431865459017	6_1	12	bűntett	embertelen		new	1	7349	7	2	1	964	10	4	1	6.6	5.6	4.3	6.1	0.0
598.4132365172118	1.3162048066733405	DISTANT	1.3162048066733405	6_1	74	sütemény	házassági		new	1	1032	8	3	3	422	9	4	6	2.4	4.05	4.5	2.7	0.659826398
