onset	duration	trial_type	response_time	stim_list	itemno	noun	adjective	jitter	response	counterbalance	noun_freq	noun_char	noun_syll	noun_phon	adj_freq	adj_char	adj_syll	adj_phon	arousal	concreteness	imageability	meaningfulness	cosine
28.04613232610791	2.0	CLOSE	1.3471744228809257	StimuliTable-6409-Mapping-Run3.xlsx	57	műalkotás	reneszánsz	10	4	1	784	9	4	1	1591	10	3	3	2.25	6.25	6.1	6.6	0.743859231
38.04652909336437	2.0	DISTANT	1.1788859369698912	StimuliTable-6409-Mapping-Run3.xlsx	39	készpénz	méltánytalan	8	3	1	3600	8	2	3	351	12	4	1	4.0	3.55	2.9	2.5	0.6948193309999999
50.06302759287064	2.0	BASELINE	1.3785605314697025	StimuliTable-6409-Mapping-Run3.xlsx	77	szélvihar	hirtelen	10	3	1	490	9	3	0	6756	8	3	4	4.6	6.2	6.2	6.65	1.0
58.06333906413056	2.0	BASELINE	1.6903056106821168	StimuliTable-6409-Mapping-Run3.xlsx	35	kapitány	rutinos	6	2	1	6280	8	3	5	669	7	3	6	1.95	6.0	5.15	6.1	1.0
70.07883808924817	2.0	CLOSE	0.0	StimuliTable-6409-Mapping-Run3.xlsx	79	szerszám	alattomos	10	0	1	812	8	2	4	304	9	4	1	3.2	2.5	2.4	2.45	0.781269133
78.0791536588149	2.0	DISTANT	1.67365675457404	StimuliTable-6409-Mapping-Run3.xlsx	55	mikrofon	köztéri	6	1	1	1847	8	3	1	615	7	3	2	1.65	5.9	5.5	5.45	0.60200268
90.09565779349214	2.0	DISTANT	0.0	StimuliTable-6409-Mapping-Run3.xlsx	58	műanyag	nemkívánatos	10	0	1	3590	7	3	1	888	12	5	1	3.4	4.9	5.1	4.9	0.7246280909999999
102.09813112120536	2.0	BASELINE	1.7178239429194946	StimuliTable-6409-Mapping-Run3.xlsx	41	királynő	szépséges	10	3	1	2060	8	3	2	414	9	3	8	2.6	5.15	6.55	6.7	1.0
112.11154308395636	2.0	BASELINE	1.528618983556953	StimuliTable-6409-Mapping-Run3.xlsx	80	színdarab	humoros	8	4	1	571	9	3	1	799	7	3	7	2.85	5.95	5.95	6.8	1.0
124.11103182027364	2.0	DISTANT	1.352539617811999	StimuliTable-6409-Mapping-Run3.xlsx	81	szőnyeg	templomi	10	3	1	1303	7	2	1	410	8	3	8	1.9	6.4	6.05	6.5	0.613664091
136.11147879177952	2.0	BASELINE	1.3281744198066008	StimuliTable-6409-Mapping-Run3.xlsx	2	albérlet	szegényes	10	3	1	547	8	3	1	439	9	3	7	4.5	5.55	6.5	6.05	1.0
146.11092219058628	2.0	BASELINE	1.53664090539678	StimuliTable-6409-Mapping-Run3.xlsx	40	kesztyű	férfias	8	3	1	891	7	2	1	506	7	3	6	1.7	5.45	4.85	5.4	1.0
158.1114267945195	2.0	DISTANT	1.4643478109428545	StimuliTable-6409-Mapping-Run3.xlsx	53	mellény	kamionos	10	3	1	909	7	2	5	543	8	4	7	1.4	6.25	5.7	6.1	0.629222572
168.1278343628619	2.0	BASELINE	1.4799400725205487	StimuliTable-6409-Mapping-Run3.xlsx	42	kirándulás	hétvégi	8	4	1	1896	10	4	4	4177	7	3	5	2.95	6.05	6.3	6.9	1.0
176.1271599353713	2.0	BASELINE	1.687640943306178	StimuliTable-6409-Mapping-Run3.xlsx	66	oroszlán	nyugodt	6	2	1	1351	8	3	3	2967	7	2	2	2.1	5.9	6.5	6.35	1.0
184.12747448035952	2.0	CLOSE	1.2639024787567903	StimuliTable-6409-Mapping-Run3.xlsx	27	folyadék	optimális	6	2	1	1438	8	3	3	1679	9	4	2	1.8	3.5	3.45	3.25	0.841039181
194.1268815067015	2.0	CLOSE	1.7119431298560812	StimuliTable-6409-Mapping-Run3.xlsx	28	gorilla	problémás	8	1	1	659	7	3	2	1593	9	3	8	3.3	4.7	4.55	4.65	0.775599658
204.12729927777764	2.0	BASELINE	1.6559743568977865	StimuliTable-6409-Mapping-Run3.xlsx	83	tananyag	iskolai	8	4	1	1192	8	3	3	5542	7	4	3	3.9	5.65	4.85	6.9	1.0
212.12662587486196	2.0	DISTANT	1.895929408725351	StimuliTable-6409-Mapping-Run3.xlsx	64	novella	körülményes	6	3	1	925	7	3	1	379	11	4	6	3.1	3.75	2.55	3.95	0.6815447809999999
224.12611000058317	2.0	CLOSE	1.359920923183381	StimuliTable-6409-Mapping-Run3.xlsx	38	kerékpár	intelligens	10	2	1	3466	8	3	3	2053	11	4	1	1.9	3.15	2.8	3.4	0.787231982
236.12659155154688	2.0	CLOSE	1.4316894344665343	StimuliTable-6409-Mapping-Run3.xlsx	17	csillagász	türelmes	10	2	1	606	10	3	4	495	8	3	7	2.2	4.5	4.55	5.3	0.7566338779999999
244.12592813825177	2.0	DISTANT	1.3839697831863305	StimuliTable-6409-Mapping-Run3.xlsx	13	bölcsőde	lokális	6	2	1	1219	8	3	1	578	7	3	3	1.75	4.7	5.35	6.55	0.6315799952000001
256.12640610319795	2.0	CLOSE	1.34370392607525	StimuliTable-6409-Mapping-Run3.xlsx	19	diáklány	védtelen	10	2	1	819	8	3	4	650	8	3	5	4.7	5.4	6.25	6.05	0.762401283
268.125904572993	2.0	CLOSE	1.551937064363301	StimuliTable-6409-Mapping-Run3.xlsx	26	fejfájás	borzalmas	10	4	1	1351	8	3	4	1061	9	3	6	5.8	5.95	6.0	6.75	0.831396163
276.126220654849	2.0	DISTANT	1.6557102723018031	StimuliTable-6409-Mapping-Run3.xlsx	3	alkatrész	karbantartási	6	2	1	2625	9	3	2	503	13	5	4	1.55	4.7	4.65	4.65	0.6785420179
288.12571989307617	2.0	BASELINE	1.4079784285677306	StimuliTable-6409-Mapping-Run3.xlsx	68	ösztöndíj	tanulmányi	10	4	1	2344	9	3	1	1823	10	4	8	3.6	6.65	4.5	6.8	1.0
298.1261263938104	2.0	BASELINE	1.5277601322923149	StimuliTable-6409-Mapping-Run3.xlsx	76	szakadék	iszonyatos	8	4	1	1478	8	3	4	452	10	4	6	5.1	4.75	5.85	5.65	1.0
306.1254258396148	2.0	DISTANT	1.4960082498873817	StimuliTable-6409-Mapping-Run3.xlsx	30	háziorvos	részmunkaidős	6	4	1	2011	9	4	4	365	13	5	1	2.05	5.7	4.75	5.75	0.6547772288
314.12477830725766	2.0	BASELINE	1.5999943135975627	StimuliTable-6409-Mapping-Run3.xlsx	29	hangszer	autentikus	6	2	1	1828	8	2	3	526	10	5	1	2.0	4.6	3.7	4.7	1.0
322.12810382648604	2.0	CLOSE	1.7086250388056214	StimuliTable-6409-Mapping-Run3.xlsx	71	professzor	jogtudományi	6	3	1	6091	10	3	5	382	12	5	3	1.8	6.2	5.45	6.55	0.774288118
330.1414148684489	2.0	DISTANT	1.4953094887059706	StimuliTable-6409-Mapping-Run3.xlsx	45	kolostor	puritán	6	3	1	1099	8	3	4	301	7	3	1	3.35	5.3	4.6	5.05	0.734071612
340.1418267482113	2.0	BASELINE	1.5110387873937725	StimuliTable-6409-Mapping-Run3.xlsx	28	gorilla	érzékeny	8	1	1	659	7	3	2	3895	8	3	3	3.1	4.0	4.3	4.9	1.0
348.15814773983584	2.0	DISTANT	1.3026970439932484	StimuliTable-6409-Mapping-Run3.xlsx	80	színdarab	társulati	6	3	1	571	9	3	1	342	9	4	7	2.45	5.8	5.8	5.1	0.6175254579999999
360.157646978063	2.0	DISTANT	1.3104687130180537	StimuliTable-6409-Mapping-Run3.xlsx	54	menetrend	naprakész	10	4	1	4833	9	3	2	816	9	3	1	2.3	5.35	4.4	6.1	0.7033958440000001
370.17405838856575	2.0	BASELINE	1.32599284025855	StimuliTable-6409-Mapping-Run3.xlsx	18	csomagolás	ízléses	8	3	1	1577	10	4	4	472	7	3	7	1.35	5.8	6.1	6.05	1.0
378.1743808740248	2.0	CLOSE	1.405746388623811	StimuliTable-6409-Mapping-Run3.xlsx	1	akadály	reménytelen	6	2	1	6030	7	3	2	1273	11	4	4	4.8	3.9	2.9	4.5	0.8418771620000001
388.1737784230354	2.0	CLOSE	1.1740755502214597	StimuliTable-6409-Mapping-Run3.xlsx	35	kapitány	szorgalmas	8	3	1	6280	8	3	5	404	10	3	6	1.7	5.35	5.3	5.85	0.762966812
396.1741078243831	2.0	DISTANT	1.4058401373731613	StimuliTable-6409-Mapping-Run3.xlsx	38	kerékpár	hardveres	6	2	1	3466	8	3	3	1550	9	3	5	1.65	2.65	1.5	2.4	0.6436905860000001
408.1735963045576	2.0	BASELINE	1.517980037147936	StimuliTable-6409-Mapping-Run3.xlsx	67	osztályzat	közepes	10	3	1	1028	10	3	3	4363	7	3	8	4.55	6.45	6.4	6.95	1.0
416.1739167408632	2.0	CLOSE	1.6858253937170955	StimuliTable-6409-Mapping-Run3.xlsx	82	találmány	újszerű	6	3	1	1346	9	3	4	1147	7	3	1	2.2	5.1	4.05	5.75	0.758028567
428.1734106000658	2.0	CLOSE	1.838135096561018	StimuliTable-6409-Mapping-Run3.xlsx	31	helyezés	jogerős	10	2	1	5834	8	3	4	4058	7	3	1	2.55	2.65	1.5	3.3	0.78364414
438.1738173569429	2.0	BASELINE	1.285770015358139	StimuliTable-6409-Mapping-Run3.xlsx	39	készpénz	csekély	8	3	1	3600	8	2	3	3258	7	2	2	4.95	4.5	5.7	6.15	1.0
450.1733168513129	2.0	CLOSE	1.4941158570618427	StimuliTable-6409-Mapping-Run3.xlsx	7	ásványvíz	színvonalas	10	2	1	963	9	3	1	1782	11	4	5	1.5	3.65	3.15	3.4	0.7986723179999999
460.1727233653655	2.0	DISTANT	1.3337762919145462	StimuliTable-6409-Mapping-Run3.xlsx	99	zeneszerző	rendkívüli	8	4	1	2295	10	4	1	13622	10	4	2	3.3	5.4	4.8	6.05	0.714982808
470.1891191510768	2.0	BASELINE	1.8374273703338984	StimuliTable-6409-Mapping-Run3.xlsx	63	napsütés	felhőtlen	8	2	1	3340	8	3	2	612	9	3	1	3.0	6.1	6.45	6.6	1.0
480.1895410204597	2.0	DISTANT	1.4371827014620069	StimuliTable-6409-Mapping-Run3.xlsx	69	pénztárca	alvilági	8	1	1	1902	9	3	3	393	8	4	3	3.55	2.25	2.8	2.6	0.690712929
490.20593603773887	2.0	CLOSE	1.5807842723406793	StimuliTable-6409-Mapping-Run3.xlsx	51	magazin	kutatási	8	4	1	7307	7	3	2	3464	8	4	6	1.7	4.85	4.8	5.1	0.882873833
502.20841935506905	2.0	CLOSE	1.4333884384723206	StimuliTable-6409-Mapping-Run3.xlsx	53	mellény	szabadidős	10	2	1	909	7	2	5	608	10	4	1	2.05	4.15	4.65	4.85	0.7459257840000001
512.2218269633704	2.0	BASELINE	1.492109480099316	StimuliTable-6409-Mapping-Run3.xlsx	16	csengőhang	többféle	8	2	1	2279	10	3	1	2956	8	3	1	2.25	4.55	3.55	5.8	1.0
520.2221545717111	2.0	CLOSE	1.4918546166918532	StimuliTable-6409-Mapping-Run3.xlsx	56	monitor	érintős	6	4	1	3644	7	3	3	784	7	3	3	1.5	6.55	6.45	6.45	0.8547784690000001
528.2384945180056	2.0	CLOSE	1.5394490134858645	StimuliTable-6409-Mapping-Run3.xlsx	5	állatkert	különleges	6	3	1	2056	9	3	3	12581	10	4	1	2.5	4.8	5.2	5.4	0.8002586359999999
538.2388882115301	2.0	DISTANT	1.6191961582480872	StimuliTable-6409-Mapping-Run3.xlsx	76	szakadék	kedvezőtlen	8	1	1	1478	8	3	4	3202	11	4	2	3.95	2.85	3.3	2.35	0.659476936
550.2383769478474	2.0	DISTANT	1.5714393660746282	StimuliTable-6409-Mapping-Run3.xlsx	65	olimpikon	bravúros	10	2	1	644	9	4	2	461	8	3	2	2.9	5.15	5.5	6.5	0.613806427
562.2408789637047	2.0	BASELINE	1.2319841026692302	StimuliTable-6409-Mapping-Run3.xlsx	33	iránytű	hasznos	10	2	1	794	7	3	2	9089	7	2	7	1.75	5.45	6.15	6.3	1.0
570.2542030690165	2.0	CLOSE	1.2987744527963514	StimuliTable-6409-Mapping-Run3.xlsx	13	bölcsőde	környékbeli	6	3	1	1219	8	3	1	1283	11	4	2	1.5	6.15	6.3	6.45	0.7846326231999999
578.2545201754474	2.0	DISTANT	1.346497690094111	StimuliTable-6409-Mapping-Run3.xlsx	6	áruházlánc	kockázatos	6	1	1	935	10	4	2	2073	10	4	4	3.05	2.95	2.7	3.7	0.71600765
588.2539374475564	2.0	DISTANT	1.1867954115368775	StimuliTable-6409-Mapping-Run3.xlsx	19	diáklány	törékeny	8	3	1	819	8	3	4	854	8	3	1	3.7	6.1	6.6	6.6	0.649407744
598.2543290919275	2.0	CLOSE	1.4345805332523014	StimuliTable-6409-Mapping-Run3.xlsx	64	novella	beszédes	8	4	1	925	7	3	1	637	8	3	7	3.3	4.4	3.75	4.9	0.783685148
606.2536602996079	2.0	BASELINE	1.6187530289025744	StimuliTable-6409-Mapping-Run3.xlsx	15	csecsemő	egészséges	6	3	1	2039	8	3	2	7076	10	4	8	2.6	6.5	6.55	6.6	1.0
616.2530673259498	2.0	DISTANT	1.7468565992458025	StimuliTable-6409-Mapping-Run3.xlsx	68	ösztöndíj	partnerségi	8	2	1	2344	9	3	1	465	11	4	3	2.05	4.7	2.1	4.3	0.680144787
624.2573925757133	2.0	DISTANT	1.519201076214813	StimuliTable-6409-Mapping-Run3.xlsx	2	albérlet	hátrányos	6	1	1	547	8	3	1	5583	9	3	6	4.3	4.4	4.3	4.05	0.60664767
636.269877296716	2.0	BASELINE	1.1781648912474338	StimuliTable-6409-Mapping-Run3.xlsx	57	műalkotás	korabeli	10	4	1	784	9	4	1	2056	8	4	3	2.0	5.45	4.75	6.2	1.0
646.2692658806809	2.0	CLOSE	1.490160479417682	StimuliTable-6409-Mapping-Run3.xlsx	20	diktátor	szörnyű	8	2	1	1821	8	3	4	2251	7	2	4	6.3	5.9	6.4	6.55	0.8910186290000001
