onset	duration	trial_type	response_time	stim_list	itemno	noun	adjective	jitter	response	counterbalance	noun_freq	noun_char	noun_syll	noun_phon	adj_freq	adj_char	adj_syll	adj_phon	arousal	concreteness	imageability	meaningfulness	cosine
28.04947281034401	2.0	CLOSE	1.5142542154790135	StimuliTable-8236-Mapping-Run1.xlsx	16	csengőhang	változatos	10	2	1	2279	10	3	1	2172	10	4	6	2.55	4.0	4.4	5.35	0.843068182
36.04890979848278	2.0	DISTANT	1.5862556970387232	StimuliTable-8236-Mapping-Run1.xlsx	77	szélvihar	kíméletlen	6	3	1	490	9	3	0	564	10	4	2	5.5	5.75	6.05	6.5	0.6293716429999999
46.049441560368	2.0	DISTANT	1.474214287227369	StimuliTable-8236-Mapping-Run1.xlsx	64	novella	körülményes	8	1	1	925	7	3	1	379	11	4	6	3.1	3.75	2.55	3.95	0.6815447809999999
58.050081416433386	2.0	BASELINE	1.2259952156819054	StimuliTable-8236-Mapping-Run1.xlsx	65	olimpikon	legendás	10	4	1	644	9	4	2	3949	8	3	5	2.15	5.8	5.5	6.6	1.0
66.04950713409198	2.0	CLOSE	1.3702740494773025	StimuliTable-8236-Mapping-Run1.xlsx	91	újságcikk	döbbenetes	6	4	1	503	9	3	0	999	10	4	6	4.35	4.9	4.45	6.6	0.7505655290000001
76.04902865085023	2.0	DISTANT	1.4182709388260264	StimuliTable-8236-Mapping-Run1.xlsx	96	ventilátor	nagyobbik	8	3	1	1165	10	4	3	1603	9	3	1	1.75	5.9	6.55	6.3	0.7033834459999999
84.05246640435507	2.0	CLOSE	1.4628362222065334	StimuliTable-8236-Mapping-Run1.xlsx	10	barátnő	tizenéves	6	4	1	3479	7	3	1	940	9	4	2	3.85	5.45	5.9	6.2	0.8318079709999999
94.06600071772846	2.0	DISTANT	1.3616249782571686	StimuliTable-8236-Mapping-Run1.xlsx	80	színdarab	társulati	8	4	1	571	9	3	1	342	9	4	7	2.45	5.8	5.8	5.1	0.6175254579999999
106.0656272549022	2.0	CLOSE	1.393620599163114	StimuliTable-8236-Mapping-Run1.xlsx	52	matrica	ingyenes	10	4	1	1479	7	3	2	13952	8	3	1	2.65	6.2	4.8	6.5	0.863539815
118.06626659866744	2.0	DISTANT	1.3693706178019056	StimuliTable-8236-Mapping-Run1.xlsx	15	csecsemő	tevékeny	10	2	1	2039	8	3	2	403	8	3	2	2.4	4.65	4.65	4.15	0.655481756
126.06569257246883	2.0	BASELINE	1.553601265164616	StimuliTable-8236-Mapping-Run1.xlsx	100	zöldség	rendszeres	6	2	1	2637	7	2	3	5423	10	3	8	1.9	2.0	2.65	2.4	1.0
136.06622484665422	2.0	DISTANT	1.785581619689765	StimuliTable-8236-Mapping-Run1.xlsx	9	baktérium	szabadtéri	8	4	1	1448	9	4	1	2682	10	4	5	3.7	3.25	2.6	3.2	0.6112335320000001
148.06586419119412	2.0	CLOSE	1.657596062294033	StimuliTable-8236-Mapping-Run1.xlsx	92	útlezárás	félpályás	10	4	1	1291	9	4	3	1206	9	3	2	2.95	6.3	6.3	6.3	0.78665024
156.06629067652102	2.0	BASELINE	1.5453289866854902	StimuliTable-8236-Mapping-Run1.xlsx	81	szőnyeg	használati	6	2	1	1303	7	2	1	1806	10	4	5	1.9	3.55	4.25	3.8	1.0
168.06594103539828	2.0	DISTANT	1.5696399311200366	StimuliTable-8236-Mapping-Run1.xlsx	35	kapitány	tüzérségi	10	3	1	6280	8	3	5	319	9	4	5	2.8	5.9	5.55	6.15	0.616324306
178.0654740787868	2.0	BASELINE	1.305367080916767	StimuliTable-8236-Mapping-Run1.xlsx	53	mellény	sportos	8	4	1	909	7	2	5	700	7	2	7	1.45	5.9	6.0	6.0	1.0
186.0658987710849	2.0	BASELINE	1.3376093717160984	StimuliTable-8236-Mapping-Run1.xlsx	1	akadály	lehetetlen	6	4	1	6030	7	3	2	5822	10	4	6	5.4	4.65	3.6	6.3	1.0
194.06531449899197	2.0	CLOSE	1.6496262938308064	StimuliTable-8236-Mapping-Run1.xlsx	43	kolbász	méternyi	6	1	1	867	7	2	2	324	8	3	1	2.75	5.95	6.65	5.85	0.762132525
204.06884728316072	2.0	CLOSE	1.3101977636761148	StimuliTable-8236-Mapping-Run1.xlsx	14	boríték	szavazási	8	4	1	1364	7	3	3	407	9	4	7	3.5	6.65	6.65	6.85	0.75406909
214.08238031579825	2.0	BASELINE	1.5289604029530892	StimuliTable-8236-Mapping-Run1.xlsx	45	kolostor	hajdani	8	4	1	1099	8	3	4	1367	7	3	7	2.3	4.65	5.65	5.75	1.0
224.0869238573869	2.0	CLOSE	1.2517390483553754	StimuliTable-8236-Mapping-Run1.xlsx	12	benzinkút	délutáni	8	3	1	1490	9	3	1	6707	8	4	5	1.6	2.65	3.5	2.7	0.792105377
234.09844638951472	2.0	DISTANT	1.6722315531005734	StimuliTable-8236-Mapping-Run1.xlsx	66	oroszlán	jelentéktelen	8	2	1	1351	8	3	3	1068	13	5	3	4.0	3.05	3.55	3.15	0.658192992
244.1019799421265	2.0	CLOSE	1.8448804982981528	StimuliTable-8236-Mapping-Run1.xlsx	38	kerékpár	intelligens	8	1	1	3466	8	3	3	2053	11	4	1	1.9	3.15	2.8	3.4	0.787231982
254.11552398909407	2.0	DISTANT	1.8236315392132385	StimuliTable-8236-Mapping-Run1.xlsx	79	szerszám	illegális	8	4	1	812	8	2	4	5833	9	4	1	3.8	4.1	3.65	5.05	0.606139541
266.1152184053135	2.0	DISTANT	1.6876505986292614	StimuliTable-8236-Mapping-Run1.xlsx	7	ásványvíz	nagysikerű	10	2	1	963	9	3	1	627	10	4	1	1.35	4.75	4.35	5.75	0.66301918
276.1156856180678	2.0	BASELINE	1.6316124757067882	StimuliTable-8236-Mapping-Run1.xlsx	13	bölcsőde	szomszédos	8	4	1	1219	8	3	1	5450	10	3	7	1.7	6.1	5.1	6.55	1.0
284.11912209083675	2.0	BASELINE	1.5962854024401167	StimuliTable-8236-Mapping-Run1.xlsx	61	művészet	vizuális	6	4	1	6299	8	3	1	1406	8	4	1	2.15	4.8	4.3	5.65	1.0
292.13154856694746	2.0	CLOSE	1.8869672999717293	StimuliTable-8236-Mapping-Run1.xlsx	90	tűzijáték	nevezetes	6	2	1	1585	9	4	1	817	9	4	5	2.8	4.0	5.05	3.5	0.772080302
302.1350836564452	2.0	CLOSE	1.6354741530740284	StimuliTable-8236-Mapping-Run1.xlsx	39	készpénz	szerény	8	2	1	3600	8	2	3	3344	7	2	5	3.2	3.75	4.05	2.25	0.885355115
310.1484968121222	2.0	DISTANT	1.5102496079052798	StimuliTable-8236-Mapping-Run1.xlsx	65	olimpikon	bravúros	6	3	1	644	9	4	2	461	8	3	2	2.9	5.15	5.5	6.5	0.613806427
322.1521645859393	2.0	CLOSE	1.6588516965784947	StimuliTable-8236-Mapping-Run1.xlsx	89	tudomány	építészeti	10	3	1	3986	8	3	5	1116	10	5	7	1.75	3.95	4.45	5.85	0.7951859240000001
330.1655749239944	2.0	BASELINE	1.3415991227448103	StimuliTable-8236-Mapping-Run1.xlsx	67	osztályzat	közepes	6	4	1	1028	10	3	3	4363	7	3	8	4.55	6.45	6.4	6.95	1.0
342.16521298779844	2.0	CLOSE	1.38939032577764	StimuliTable-8236-Mapping-Run1.xlsx	78	szemüveg	ideális	10	4	1	1594	8	3	4	3414	7	4	1	1.9	5.3	5.0	5.5	0.84095335
354.18184258567635	2.0	CLOSE	1.7809292154706782	StimuliTable-8236-Mapping-Run1.xlsx	100	zöldség	gyakori	10	1	1	2637	7	2	3	6043	7	3	1	1.45	4.1	3.9	5.0	0.840808868
364.1853863841825	2.0	BASELINE	1.465480943537841	StimuliTable-8236-Mapping-Run1.xlsx	62	nagymama	kedvenc	8	2	1	1874	8	3	1	9838	7	2	3	3.25	6.0	5.9	6.8	1.0
374.1979081471	2.0	CLOSE	1.2042362672364106	StimuliTable-8236-Mapping-Run1.xlsx	80	színdarab	mulatságos	8	4	1	571	9	3	1	401	10	4	5	3.3	5.9	6.2	6.9	0.8485735059999999
386.1985474908725	2.0	BASELINE	1.1002980786652188	StimuliTable-8236-Mapping-Run1.xlsx	86	telefonszám	otthoni	10	4	1	4732	11	4	2	4288	7	3	8	1.4	6.5	4.3	6.65	1.0
394.197984735154	2.0	DISTANT	1.7002443389501425	StimuliTable-8236-Mapping-Run1.xlsx	58	műanyag	nemkívánatos	6	2	1	3590	7	3	1	888	12	5	1	3.4	4.9	5.1	4.9	0.7246280909999999
402.1984101958951	2.0	BASELINE	1.4359860891490823	StimuliTable-8236-Mapping-Run1.xlsx	88	törmelék	építkezési	6	4	1	730	8	3	1	395	10	5	7	1.9	6.55	6.8	6.4	1.0
410.2148389742579	2.0	CLOSE	0.0	StimuliTable-8236-Mapping-Run1.xlsx	46	költészet	varázslatos	6	0	1	1207	9	3	4	651	11	4	5	2.4	3.15	3.5	5.4	0.770221233
418.2152634104059	2.0	DISTANT	1.627288452385983	StimuliTable-8236-Mapping-Run1.xlsx	68	ösztöndíj	partnerségi	6	2	1	2344	9	3	1	465	11	4	3	2.05	4.7	2.1	4.3	0.680144787
426.21467862602	2.0	DISTANT	1.7635775382368593	StimuliTable-8236-Mapping-Run1.xlsx	13	bölcsőde	lokális	6	4	1	1219	8	3	1	578	7	3	3	1.75	4.7	5.35	6.55	0.6315799952000001
438.21534051075287	2.0	BASELINE	1.6673273560518282	StimuliTable-8236-Mapping-Run1.xlsx	92	útlezárás	helyszíni	10	3	1	1291	9	4	3	4087	9	3	7	3.75	6.6	6.45	6.5	1.0
450.2149693532556	2.0	CLOSE	1.7156039582987432	StimuliTable-8236-Mapping-Run1.xlsx	85	távirat	kulturált	10	2	1	635	7	3	2	578	9	3	1	1.7	3.45	2.2	3.7	0.7990051509999999
462.21459614657215	2.0	DISTANT	1.571335626533255	StimuliTable-8236-Mapping-Run1.xlsx	4	alkohol	szabványos	10	2	1	3138	7	3	2	1426	10	3	2	1.9	2.9	3.45	2.95	0.640375018
474.2312367587874	2.0	BASELINE	1.3389387764327694	StimuliTable-8236-Mapping-Run1.xlsx	51	magazin	tudományos	10	4	1	7307	7	3	2	11632	10	4	5	1.8	6.3	6.45	6.15	1.0
482.2316622195213	2.0	DISTANT	1.618648090174247	StimuliTable-8236-Mapping-Run1.xlsx	63	napsütés	hosszas	6	3	1	3340	8	3	2	1776	7	2	7	2.9	5.35	6.4	6.35	0.72304523
494.2483130776309	2.0	DISTANT	1.6102533732700977	StimuliTable-8236-Mapping-Run1.xlsx	14	boríték	lakossági	10	1	1	1364	7	3	3	6638	9	4	7	1.5	3.15	3.85	3.5	0.602748156
504.2518353597625	2.0	BASELINE	1.678851425058383	StimuliTable-8236-Mapping-Run1.xlsx	52	matrica	fizetős	8	3	1	1479	7	3	2	2152	7	3	2	2.75	5.8	5.4	5.6	1.0
512.264262860459	2.0	BASELINE	1.2256079208964366	StimuliTable-8236-Mapping-Run1.xlsx	15	csecsemő	egészséges	6	4	1	2039	8	3	2	7076	10	4	8	2.6	6.5	6.55	6.6	1.0
522.2648066612674	2.0	CLOSE	1.1773559087887406	StimuliTable-8236-Mapping-Run1.xlsx	54	menetrend	változatlan	8	4	1	4833	9	3	2	3262	11	4	2	1.8	6.25	4.95	7.0	0.812076867
532.2813391793024	2.0	BASELINE	1.280967253354902	StimuliTable-8236-Mapping-Run1.xlsx	19	diáklány	ártatlan	8	4	1	819	8	3	4	2035	8	3	5	2.8	5.3	5.35	6.6	1.0
542.2818717096307	2.0	CLOSE	1.496678665462241	StimuliTable-8236-Mapping-Run1.xlsx	42	kirándulás	tegnapi	8	4	1	1896	10	4	4	6241	7	3	8	2.15	6.7	5.15	6.1	0.839792311
550.2972881936876	2.0	CLOSE	1.0802732477459358	StimuliTable-8236-Mapping-Run1.xlsx	23	egyenruha	parancsnoki	6	4	1	1598	9	4	1	431	11	4	6	2.35	6.25	6.6	6.35	0.7798475029999999
560.2978319944959	2.0	DISTANT	1.80802448153554	StimuliTable-8236-Mapping-Run1.xlsx	3	alkatrész	karbantartási	8	1	1	2625	9	3	2	503	13	5	4	1.55	4.7	4.65	4.65	0.6785420179
572.2974708267429	2.0	BASELINE	1.2642736186389811	StimuliTable-8236-Mapping-Run1.xlsx	99	zeneszerző	nagyszerű	10	4	1	2295	10	4	1	4154	9	3	1	2.35	5.5	5.55	6.65	1.0
584.3010994100187	2.0	DISTANT	1.4450221990118737	StimuliTable-8236-Mapping-Run1.xlsx	41	királynő	példátlan	10	1	1	2060	8	3	2	2102	9	3	1	2.55	4.55	4.6	5.3	0.661574185
592.3145481701722	2.0	BASELINE	1.767634143718169	StimuliTable-8236-Mapping-Run1.xlsx	46	költészet	mágikus	6	2	1	1207	9	3	4	454	7	3	1	2.6	3.0	3.15	3.85	1.0
604.3181647145248	2.0	CLOSE	1.748080623910937	StimuliTable-8236-Mapping-Run1.xlsx	53	mellény	szabadidős	10	2	1	909	7	2	5	608	10	4	1	2.05	4.15	4.65	4.85	0.7459257840000001
612.3305917029284	2.0	DISTANT	1.9109227118970007	StimuliTable-8236-Mapping-Run1.xlsx	60	mutatvány	szabálytalan	6	1	1	716	9	3	3	909	12	4	1	3.55	3.95	4.6	5.05	0.609612226
624.3342313005414	2.0	DISTANT	1.4034510219353251	StimuliTable-8236-Mapping-Run1.xlsx	43	kolbász	szezonális	10	1	1	867	7	2	2	973	10	4	1	1.6	3.9	3.95	3.15	0.605840862
634.3637648331714	2.0	BASELINE	1.8936248255995447	StimuliTable-8236-Mapping-Run1.xlsx	2	albérlet	szegényes	8	3	1	547	8	3	1	439	9	3	7	4.5	5.55	6.5	6.05	1.0
646.3644149351312	2.0	BASELINE	1.373823643248546	StimuliTable-8236-Mapping-Run1.xlsx	35	kapitány	rutinos	10	4	1	6280	8	3	5	669	7	3	6	1.95	6.0	5.15	6.1	1.0
