onset	duration	trial_type	response_time	stim_list	itemno	noun	adjective	order	response	correctness	noun_freq	noun_char	noun_syll	noun_phon	adj_freq	adj_char	adj_syll	adj_phon	arousal	concreteness	imageability	meaningfulness	cosine
24.050018160669424	2.1164037169728545	DISTANT	2.1164037169728545	7_2	13	bölcsőde	lokális		new	1	1219	8	3	1	578	7	3	3	1.75	4.7	5.35	6.55	0.6315799952000001
34.05245512215333	1.2490964492681087	FOIL	1.2490964492681087	7_2	1	ábrázolás	szokatlan		new	1	839	9	4	4	3495	9	3	1	2.55	4.45	3.45	6.05	0.0
42.0657974478745	1.8199527566539475	DISTANT	1.8199527566539475	7_2	14	boríték	lakossági		new	1	1364	7	3	3	6638	9	4	7	1.5	3.15	3.85	3.5	0.602748156
46.06598468971788	1.579989405850938	CLOSE	1.579989405850938	7_2	26	fejfájás	borzalmas		new	1	1351	8	3	4	1061	9	3	6	5.8	5.95	6.0	6.75	0.831396163
54.06931636493391	1.272496556135593	CLOSE	1.272496556135593	7_2	27	folyadék	optimális		new	1	1438	8	3	3	1679	9	4	2	1.8	3.5	3.45	3.25	0.841039181
60.08258133493655	1.7712327377666952	TARGET	1.7712327377666952	7_2	88	törmelék	építkezési		old	1	730	8	3	1	395	10	5	7	1.9	6.55	6.8	6.4	0.8136036990000001
66.08283696743456	1.5392746799407178	TARGET	1.5392746799407178	7_2	89	tudomány	mérnöki		old	1	3986	8	3	5	877	7	3	6	1.7	4.75	3.4	6.0	0.7951859240000001
74.0851983662069	1.3278320263998469	FOIL	1.3278320263998469	7_2	2	adottság	pozitív		new	1	1928	8	3	3	10499	7	3	1	2.15	3.8	3.0	6.0	0.0
82.09854555867787	1.3866392830823315	DISTANT	1.3866392830823315	7_2	15	csecsemő	tevékeny		new	1	2039	8	3	2	403	8	3	2	2.4	4.65	4.65	4.15	0.655481756
90.09887598545174	1.474390900504659	FOIL	1.474390900504659	7_2	3	alapanyag	folyékony		new	1	2168	9	4	4	612	9	3	1	1.75	5.6	5.6	6.45	0.0
100.11531330861908	1.8979583211475983	TARGET	1.8979583211475983	7_2	90	tűzijáték	nagyszabású		old	1	1585	9	4	1	3070	11	4	1	2.9	6.2	6.9	6.6	0.772080302
108.11465809025684	2.017743405427609	TARGET	2.017743405427609	7_2	91	újságcikk	botrányos		new	0	503	9	3	0	1508	9	3	4	3.75	5.45	5.65	6.55	0.7505655290000001
118.11508892578422	1.1539937326524523	FOIL	1.1539937326524523	7_2	4	államférfi	diszkrét		new	1	599	10	4	4	535	8	2	1	1.8	3.8	3.65	4.7	0.0
122.1152613112281	1.3939757820262455	DISTANT	1.3939757820262455	7_2	16	csengőhang	általános		new	1	2279	10	3	1	25132	9	4	3	2.4	5.65	4.6	5.45	0.712553442
130.1146071174444	1.2177399730790055	CLOSE	1.2177399730790055	7_2	28	gorilla	problémás		new	1	659	7	3	2	1593	9	3	8	3.3	4.7	4.55	4.65	0.775599658
136.13087205516786	1.6333605017571244	FOIL	1.6333605017571244	7_2	5	áramlat	belföldi		new	1	1372	7	3	2	3239	8	3	4	1.8	3.05	2.25	2.8	0.0
140.13104546519023	1.7133857678782078	CLOSE	1.7133857678782078	7_2	29	hangszer	könnyűzenei		new	1	1828	8	2	3	420	11	5	1	2.1	6.1	6.2	6.25	0.7948508259999999
150.13148859566718	1.7050825785190682	FOIL	1.7050825785190682	7_2	6	asszisztens	tárgyalási		new	1	1083	11	3	4	2106	10	4	6	2.05	4.45	4.4	5.25	0.0
154.13466453486035	2.0	DISTANT	0.0	7_2	17	csillagász	tisztességes			0	606	10	3	4	3762	12	4	7	1.35	4.4	3.5	5.45	0.601381719
164.14808498474304	1.424706496494764	CLOSE	1.424706496494764	7_2	30	háziorvos	türelmetlen		new	1	2011	9	4	4	480	11	4	1	4.55	6.25	5.95	6.6	0.7620039581999999
168.1472850445789	2.064427329416503	TARGET	2.064427329416503	7_2	92	útlezárás	helyszíni		old	1	1291	9	4	3	4087	9	3	7	3.75	6.6	6.45	6.5	0.78665024
180.14778785678936	1.3686899372478365	CLOSE	1.3686899372478365	7_2	31	helyezés	jogerős		new	1	5834	8	3	4	4058	7	3	1	2.55	2.65	1.5	3.3	0.78364414
188.14713417529856	1.2887020682683217	DISTANT	1.2887020682683217	7_2	18	csomagolás	karakteres		new	1	1577	10	4	4	625	10	4	6	1.85	4.5	4.7	5.35	0.7101491090000001
194.15038285961052	1.5732435767858988	DISTANT	1.5732435767858988	7_2	19	diáklány	törékeny		new	1	819	8	3	4	854	8	3	1	3.7	6.1	6.6	6.6	0.649407744
202.16375028752373	1.624067312804982	FOIL	1.624067312804982	7_2	7	bábszínház	virtuális		new	1	636	10	3	2	5945	9	4	1	1.85	4.6	4.95	4.6	0.0
210.1640720053765	1.5038137397059472	TARGET	1.5038137397059472	7_2	93	útmutatás	erkölcsi		new	0	703	9	4	2	4377	8	3	7	3.2	4.1	2.7	6.3	0.7834023237000001
214.1672489691482	1.9565181419675357	FOIL	1.9565181419675357	7_2	8	bankrablás	tavalyi		new	1	535	10	3	2	16956	7	3	7	3.8	5.35	4.15	6.15	0.0
224.18068222626607	1.3273082103114575	FOIL	1.3273082103114575	7_2	9	becslés	szakszerű		new	1	7246	7	2	4	968	9	3	2	2.1	5.25	2.4	6.0	0.0
232.18002854477527	1.2153004501451503	TARGET	1.2153004501451503	7_2	94	vacsora	zártkörű		new	0	2517	7	3	1	562	8	3	1	2.45	5.85	5.4	6.9	0.7889098529999999
242.19645741516436	1.6947338168974966	FOIL	1.6947338168974966	7_2	10	berendezés	egyszerű		new	1	6368	10	4	5	22554	8	3	3	1.5	5.45	5.7	6.15	0.0
248.19672175658343	1.7587374828508473	TARGET	1.7587374828508473	7_2	95	végállomás	ideiglenes		old	1	893	10	4	4	4073	10	5	1	2.95	4.15	3.65	4.7	0.847806394
258.1961541397395	1.1347347185292165	TARGET	1.1347347185292165	7_2	96	ventilátor	masszív		old	1	1165	10	4	3	982	7	2	2	1.6	4.5	5.6	5.5	0.84082365
268.19658702442393	1.5827770295509254	TARGET	1.5827770295509254	7_2	97	világítás	hangulatos		old	1	1393	9	4	5	1112	10	4	5	2.95	5.9	6.4	6.85	0.78756988
272.19575532230374	1.5347296468607965	CLOSE	1.5347296468607965	7_2	32	horgász	hagyományos		old	0	707	7	2	2	15070	11	4	6	1.3	4.15	5.5	4.8	0.8027049303
284.21227768553945	1.3260712871415308	FOIL	1.3260712871415308	7_2	11	borvidék	csapadékos		new	1	827	8	3	2	840	10	4	4	2.55	5.5	6.15	5.65	0.0
290.2125397216514	1.301799519569613	TARGET	1.301799519569613	7_2	98	zarándok	keresztény		old	1	1047	8	3	2	7533	10	3	5	2.05	5.9	5.65	5.75	0.8485714790000001
302.22905977958	1.8613916038812024	DISTANT	1.8613916038812024	7_2	20	diktátor	rosszindulatú		new	1	1821	8	3	4	2105	13	5	3	6.2	5.85	5.7	6.6	0.6793145540000001
306.2292326773168	1.6774204785760958	CLOSE	1.6774204785760958	7_2	33	iránytű	előnyös		new	1	794	7	3	2	2414	7	3	1	1.35	2.9	3.25	2.35	0.8048268559999999
316.228666597337	1.7254629945091438	FOIL	1.7254629945091438	7_2	12	bűntett	embertelen		new	1	7349	7	2	1	964	10	4	1	6.6	5.6	4.3	6.1	0.0
322.22892504742777	1.1973969542304983	FOIL	1.1973969542304983	7_2	113	választék	egyforma		new	1	1419	9	3	4	1192	8	3	2	2.25	4.75	4.5	5.15	0.0
330.22926674457267	1.7971627866718336	CLOSE	1.7971627866718336	7_2	34	kánikula	márciusi		new	1	1200	8	4	1	2871	8	4	5	3.2	5.55	5.4	4.95	0.774796665
336.2455291208462	1.6287693626218245	FOIL	1.6287693626218245	7_2	114	vallomás	következetes		new	1	6889	8	3	5	1340	12	5	3	3.8	3.9	2.75	4.95	0.0
344.24488773430494	1.5407718462083722	FOIL	1.5407718462083722	7_2	115	védekezés	célszerű		new	1	5447	9	4	4	2801	8	3	4	3.35	4.45	3.55	5.8	0.0
350.2451492581313	1.844446345603501	TARGET	1.844446345603501	7_2	99	zeneszerző	nagyszerű		new	0	2295	10	4	1	4154	9	3	1	2.35	5.5	5.55	6.65	0.9369357229999999
354.2483070110393	1.5853541022297577	CLOSE	1.5853541022297577	7_2	35	kapitány	szorgalmas		old	0	6280	8	3	5	404	10	3	6	1.7	5.35	5.3	5.85	0.762966812
360.2615801776701	1.412154377430852	FOIL	1.412154377430852	7_2	116	védőoltás	hatékony		new	1	1615	9	4	1	12155	8	3	2	3.85	5.3	4.55	6.55	0.0
368.2619129097511	1.2999760248494567	CLOSE	1.2999760248494567	7_2	36	kastély	páratlan		new	1	2771	7	2	4	1654	8	3	8	3.15	4.3	4.8	4.95	0.825480223
374.2651723521413	1.7446666813484626	FOIL	1.7446666813484626	7_2	117	végeredmény	lehetséges		new	1	5372	11	4	4	14891	10	4	4	2.9	4.15	4.25	6.2	0.0
380.2784329676797	1.3234309466934064	CLOSE	1.3234309466934064	7_2	37	képregény	élvezetes		new	1	1156	9	3	5	1070	9	4	8	2.6	5.5	6.0	6.3	0.852174282
390.2778802072353	1.9550914155115608	TARGET	1.9550914155115608	7_2	100	zöldség	rendszeres		old	1	2637	7	2	3	5423	10	3	8	1.9	2.0	2.65	2.4	0.840808868
396.294126446388	1.3068396805174416	TARGET	1.3068396805174416	7_2	51	magazin	tudományos		old	1	7307	7	3	2	11632	10	4	5	1.8	6.3	6.45	6.15	0.735963702
404.29447634016105	1.0988070825042089	TARGET	1.0988070825042089	7_2	52	matrica	fizetős		old	1	1479	7	3	2	2152	7	3	2	2.75	5.8	5.4	5.6	0.701929092
408.29464923789055	1.562834877287969	DISTANT	1.562834877287969	7_2	21	díszlet	kulturális		new	1	1420	7	2	3	24926	10	4	1	1.65	4.6	4.1	4.5	0.683287978
418.2940928914177	1.1467417614912847	TARGET	1.1467417614912847	7_2	53	mellény	sportos		old	1	909	7	2	5	700	7	2	7	1.45	5.9	6.0	6.0	0.629222572
430.294612609192	1.482598291724571	FOIL	1.482598291724571	7_2	118	veszekedés	hétköznapi		new	1	735	10	4	3	2641	10	4	3	5.55	5.05	6.0	6.45	0.0
436.3108616659374	1.8901574317133052	DISTANT	1.8901574317133052	7_2	22	díszterem	miniszteri		new	1	1123	9	3	1	4544	10	4	7	2.6	6.6	5.9	5.45	0.636730134
444.3102031176895	1.6181854600945371	FOIL	1.6181854600945371	7_2	119	vészhelyzet	időjárási		new	1	1043	11	3	2	1814	9	5	1	4.75	5.4	5.15	6.0	0.0
454.31365185108007	1.3745431017450755	FOIL	1.3745431017450755	7_2	120	vetélytárs	egyedüli		new	1	2392	10	3	2	2749	8	4	5	3.25	4.7	4.7	5.95	0.0
460.3438971711876	1.7608114871763971	TARGET	1.7608114871763971	7_2	54	menetrend	szokásos		old	1	4833	9	3	2	8246	8	3	6	1.7	5.4	4.45	6.65	0.7033958440000001
466.34317176915647	1.2488841052472708	DISTANT	1.2488841052472708	7_2	23	egyenruha	vasutas		new	1	1598	9	4	1	1481	7	3	6	1.35	6.25	6.8	6.75	0.63155067
476.3435941519056	1.6248910744325258	FOIL	1.6248910744325258	7_2	121	vetítés	egyszeri		new	1	1678	7	3	4	2982	8	3	3	1.55	5.8	4.2	6.15	0.0
484.34294098270766	1.1048746401793323	DISTANT	1.1048746401793323	7_2	24	étterem	milliárdos		new	1	4657	7	3	4	7498	10	4	7	2.4	4.75	5.15	4.95	0.604082525
492.3432857535881	1.8728399950632597	FOIL	1.8728399950632597	7_2	122	vezetőség	tartományi		new	1	3803	9	4	2	2253	10	4	7	2.0	3.7	2.35	3.85	0.0
502.359730504948	1.2802147108013742	TARGET	1.2802147108013742	7_2	55	mikrofon	vezetékes		old	1	1847	8	3	1	3193	9	4	8	1.25	6.45	6.75	6.25	0.60200268
512.359167498711	1.40823126390751	TARGET	1.40823126390751	7_2	56	monitor	kijelzős		new	0	3644	7	3	3	489	8	3	2	1.25	6.0	6.15	5.15	0.7256274220000001
518.3763763299721	1.3515149170998484	DISTANT	1.3515149170998484	7_2	25	fejedelem	gyarmati		new	1	903	9	4	3	862	8	3	3	2.75	4.75	3.35	4.8	0.65641886
528.3758412435127	1.8314551943840345	TARGET	1.8314551943840345	7_2	57	műalkotás	korabeli		old	1	784	9	4	1	2056	8	4	3	2.0	5.45	4.75	6.2	0.619737864
534.3791065772384	1.1879411133413669	FOIL	1.1879411133413669	7_2	123	villany	infravörös		new	1	826	7	2	5	464	10	4	1	1.95	5.75	5.95	4.8	0.0
544.392538553635	1.8548652908939405	TARGET	1.8548652908939405	7_2	58	műanyag	felesleges		old	1	3590	7	3	1	4304	10	4	7	3.55	4.95	5.15	6.3	0.7246280909999999
554.3959714060475	1.5394685815408593	TARGET	1.5394685815408593	7_2	59	műemlék	természeti		old	1	1457	7	3	1	3805	10	4	6	2.45	4.95	5.05	4.45	0.654830635
566.4084871525483	1.81421075900289	TARGET	1.81421075900289	7_2	60	mutatvány	szánalmas		old	1	716	9	3	3	685	9	3	4	4.45	4.9	3.5	6.1	0.609612226
574.4118326595853	1.7226502686171443	FOIL	1.7226502686171443	7_2	124	zaklatás	pszichés		new	1	1370	8	3	3	534	8	2	5	6.05	5.05	3.1	5.55	0.0
582.4251803643492	1.485594417274115	FOIL	1.485594417274115	7_2	125	zűrzavar	érzelmi		new	1	667	8	3	1	1869	7	3	7	5.7	4.6	3.65	5.8	0.0
592.4246127475053	1.7975600672361909	TARGET	1.7975600672361909	7_2	61	művészet	vizuális		old	1	6299	8	3	1	1406	8	4	1	2.15	4.8	4.3	5.65	0.65917778
598.4418771621858	1.1649682559727808	TARGET	1.1649682559727808	7_2	62	nagymama	kedvenc		old	1	1874	8	3	1	9838	7	2	3	3.25	6.0	5.9	6.8	0.621415973
