onset	duration	trial_type	response_time	stim_list	itemno	noun	adjective	order	response	correctness	noun_freq	noun_char	noun_syll	noun_phon	adj_freq	adj_char	adj_syll	adj_phon	arousal	concreteness	imageability	meaningfulness	cosine
22.12402642	2.0	CLOSE	1.667205342	7_2	76	szakadék	iszonyatos	1		1	1478	8	3	4	452	10	4	6	5.1	4.75	5.85	5.65	1.0
26.12923489	2.0	REPEAT	1.278010657	7_2	26	fejfájás	kellemetlen	1		1	1351	8	3	4	3486	11	4	1	5.85	5.5	5.25	6.7	1.0
30.12943033	2.0	DISTANT	0.878047593	7_2	51	magazin	tudományos	1		1	7307	7	3	2	11632	10	4	5	1.8	6.3	6.45	6.15	1.0
36.12971389	2.0	REPEAT	1.118099458	7_2	27	folyadék	elegendő	1		1	1438	8	3	3	9296	8	4	1	2.65	4.85	5.45	6.5	1.0
42.13300408	2.0	CLOSE	1.154417123	7_2	77	szélvihar	hirtelen	1		1	490	9	3	0	6756	8	3	4	4.6	6.2	6.2	6.65	1.0
52.14647224	2.0	FILLER	1.133387534	7_2	63	laktanya	községi	1			1021	8	3	3	670	7	3	5	2.4	5.45	5.1	4.6	0.0
58.1457599	2.0	CLOSE	1.037115816	7_2	78	szemüveg	kényelmes	1		1	1594	8	3	4	3437	9	3	8	2.15	6.1	6.05	6.7	1.0
64.16204541	2.0	FILLER	0.860705995	7_2	64	lázadás	széleskörű	1			945	7	3	5	1556	10	4	1	5.55	5.35	5.0	5.25	0.0
74.16253106	2.0	FILLER	0.956730019	7_2	65	leépítés	túlzott	1			2318	8	4	4	2708	7	2	2	5.2	4.75	2.7	5.95	0.0
80.16583637	2.0	REPEAT	0.841370555	7_2	28	gorilla	érzékeny	1		1	659	7	3	2	3895	8	3	3	3.1	4.0	4.3	4.9	1.0
88.17922	2.0	REPEAT	0.828071966	7_2	29	hangszer	autentikus	1		1	1828	8	2	3	526	10	5	1	2.0	4.6	3.7	4.7	1.0
94.17849997	2.0	DISTANT	1.020076214	7_2	52	matrica	fizetős	1		1	1479	7	3	2	2152	7	3	2	2.75	5.8	5.4	5.6	1.0
104.1789559	2.0	FILLER	0.868070706	7_2	66	megjegyzés	egyértelmű	1			3288	10	3	4	11495	10	4	1	2.5	5.65	2.5	6.1	0.0
112.1783768	2.0	REPEAT	0.860084328	7_2	30	háziorvos	elégedetlen	1		1	2011	9	4	4	2000	11	5	3	4.1	5.6	5.2	5.6	1.0
118.1786649	2.0	DISTANT	1.075741869	7_2	53	mellény	sportos	1		1	909	7	2	5	700	7	2	7	1.45	5.9	6.0	6.0	1.0
122.1818473	2.0	DISTANT	0.912480024	7_2	54	menetrend	szokásos	1		1	4833	9	3	2	8246	8	3	6	1.7	5.4	4.45	6.65	1.0
132.1953411	2.0	FILLER	0.95534555	7_2	67	meglátás	egyoldalú	1			1153	8	3	3	1776	9	4	4	3.4	4.35	2.35	6.3	0.0
138.1956295	2.0	DISTANT	1.043146006	7_2	55	mikrofon	vezetékes	1		1	1847	8	3	1	3193	9	4	8	1.25	6.45	6.75	6.25	1.0
144.2119086	2.0	REPEAT	0.842746316	7_2	31	helyezés	végleges	1		1	5834	8	3	4	7802	8	3	3	2.95	4.45	3.65	5.2	1.0
150.2121927	2.0	CLOSE	0.954746937	7_2	76	szakadék	rettenetes	2		1	1478	8	3	4	868	10	4	8	5.2	5.15	6.55	6.15	0.891412258
156.212497	2.0	REPEAT	0.882483274	7_2	26	fejfájás	kellemetlen	2		1	1351	8	3	4	3486	11	4	1	5.85	5.5	5.25	6.7	1.0
162.2147754	2.0	FILLER	1.031245718	7_2	68	mellékhatás	közvetett	1			918	11	4	4	1115	9	3	2	4.65	3.85	2.6	5.25	0.0
170.228171	2.0	FILLER	1.002073502	7_2	69	mellékutca	rendezetlen	1			573	10	4	0	427	11	4	3	3.45	5.35	5.95	5.85	0.0
174.2283534	2.0	CLOSE	0.962094486	7_2	79	szerszám	trükkös	1		1	812	8	2	4	689	7	2	7	1.7	3.15	3.55	4.15	1.0
182.2317386	2.0	DISTANT	1.046598598	7_2	56	monitor	kijelzős	1		0	3644	7	3	3	489	8	3	2	1.25	6.0	6.15	5.15	1.0
188.2450231	2.0	DISTANT	1.033435766	7_2	51	magazin	állatorvosi	2		1	7307	7	3	2	356	11	5	6	1.6	5.7	5.95	6.65	0.735963702
192.2452211	2.0	REPEAT	1.161458834	7_2	27	folyadék	elegendő	2		1	1438	8	3	3	9296	8	4	1	2.65	4.85	5.45	6.5	1.0
198.244506	2.0	DISTANT	1.177236148	7_2	57	műalkotás	korabeli	1		1	784	9	4	1	2056	8	4	3	2.0	5.45	4.75	6.2	1.0
210.2610876	2.0	CLOSE	1.34481303	7_2	77	szélvihar	váratlan	2		1	490	9	3	0	2782	8	3	8	4.2	6.1	5.9	6.65	0.850282848
218.2614826	2.0	CLOSE	1.26454839	7_2	78	szemüveg	ideális	2		1	1594	8	3	4	3414	7	4	1	1.9	5.3	5.0	5.5	0.84095335
224.2777627	2.0	REPEAT	1.016118757	7_2	32	horgász	tradicionális	1		0	707	7	2	2	850	13	6	1	2.1	4.65	5.0	4.65	1.0
234.277244	2.0	FILLER	0.872152393	7_2	70	merénylő	gondatlan	1			1494	8	3	1	869	9	3	1	5.2	4.7	4.5	4.5	0.0
240.2775463	2.0	REPEAT	1.048188241	7_2	29	hangszer	autentikus	2		1	1828	8	2	3	526	10	5	1	2.0	4.6	3.7	4.7	1.0
250.2940149	2.0	REPEAT	0.895503946	7_2	28	gorilla	érzékeny	2		1	659	7	3	2	3895	8	3	3	3.1	4.0	4.3	4.9	1.0
256.294299	2.0	REPEAT	1.303464913	7_2	33	iránytű	hasznos	1		1	794	7	3	2	9089	7	2	7	1.75	5.45	6.15	6.3	1.0
268.2938925	2.0	DISTANT	1.223529933	7_2	52	matrica	kedvezményes	2		1	1479	7	3	2	3115	12	4	6	1.9	5.2	5.8	6.1	0.701929092
272.2940851	2.0	REPEAT	1.34350438	7_2	30	háziorvos	elégedetlen	2		1	2011	9	4	4	2000	11	5	3	4.1	5.6	5.2	5.6	1.0
278.294374	2.0	DISTANT	1.03122958	7_2	54	menetrend	naprakész	2		1	4833	9	3	2	816	9	3	1	2.3	5.35	4.4	6.1	0.7033958440000001
284.3106811	2.0	DISTANT	1.086822747	7_2	53	mellény	kamionos	2		1	909	7	2	5	543	8	4	7	1.4	6.25	5.7	6.1	0.629222572
290.3109526	2.0	DISTANT	1.030796181	7_2	55	mikrofon	köztéri	2		1	1847	8	3	1	615	7	3	2	1.65	5.9	5.5	5.45	0.60200268
300.3104231	2.0	FILLER	1.094839861	7_2	71	mozdulat	harmonikus	1			2331	8	3	5	567	10	4	2	2.25	4.7	4.35	4.3	0.0
308.3268203	2.0	CLOSE	0.94215531	7_2	80	színdarab	humoros	1		1	571	9	3	1	799	7	3	7	2.85	5.95	5.95	6.8	1.0
318.3272903	2.0	REPEAT	0.821902432	7_2	31	helyezés	végleges	2		1	5834	8	3	4	7802	8	3	3	2.95	4.45	3.65	5.2	1.0
324.3436099	2.0	REPEAT	1.029468064	7_2	34	kánikula	tavaszi	1		1	1200	8	4	1	5301	7	3	7	4.05	5.35	5.25	5.1	1.0
330.343843	2.0	CLOSE	0.949528474	7_2	79	szerszám	alattomos	2		1	812	8	2	4	304	9	4	1	3.2	2.5	2.4	2.45	0.781269133
342.3464575	2.0	REPEAT	0.954119379	7_2	35	kapitány	rutinos	1		0	6280	8	3	5	669	7	3	6	1.95	6.0	5.15	6.1	1.0
348.3597348	2.0	DISTANT	0.748855732	7_2	56	monitor	digitális	2		0	3644	7	3	3	11798	9	4	1	1.65	6.1	6.45	5.5	0.7256274220000001
358.3602174	2.0	DISTANT	1.156597694	7_2	58	műanyag	felesleges	1		1	3590	7	3	1	4304	10	4	7	3.55	4.95	5.15	6.3	1.0
366.3766036	2.0	DISTANT	1.060141039	7_2	57	műalkotás	posztmodern	2		1	784	9	4	1	346	11	3	1	2.75	5.65	4.95	6.05	0.619737864
374.3769991	2.0	FILLER	0.852198104	7_2	72	mozzanat	színészi	1			983	8	3	2	942	8	3	7	2.7	5.1	4.65	5.25	0.0
380.3762885	2.0	CLOSE	0.940241387	7_2	81	szőnyeg	használati	1		1	1303	7	2	1	1806	10	4	5	1.9	3.55	4.25	3.8	1.0
384.3934708	2.0	REPEAT	1.13153483	7_2	32	horgász	tradicionális	2		0	707	7	2	2	850	13	6	1	2.1	4.65	5.0	4.65	1.0
388.3926788	2.0	REPEAT	1.283536752	7_2	36	kastély	csodálatos	1		1	2771	7	2	4	3144	10	4	8	2.85	6.0	6.75	6.35	1.0
398.3931657	2.0	REPEAT	1.123306907	7_2	37	képregény	izgalmas	1		1	1156	9	3	5	6482	8	3	7	3.45	6.15	5.8	6.7	1.0
404.4094628	2.0	FILLER	1.130881657	7_2	73	munkagép	kicsiny	1			1398	8	3	1	960	7	2	6	1.5	5.35	5.55	5.45	0.0
412.4098193	2.0	REPEAT	0.954887049	7_2	38	kerékpár	elektromos	1		1	3466	8	3	3	4185	10	4	2	1.75	6.55	6.7	6.95	1.0
420.4092056	2.0	REPEAT	0.946922444	7_2	33	iránytű	hasznos	2		1	794	7	3	2	9089	7	2	7	1.75	5.45	6.15	6.3	1.0
432.4257915	2.0	FILLER	1.170295872	7_2	74	munkanap	tetszőleges	1			1952	8	3	2	865	11	4	1	2.4	3.95	3.55	5.65	0.0
440.4261788	2.0	REPEAT	1.298215456	7_2	39	készpénz	csekély	1		0	3600	8	2	3	3258	7	2	2	4.95	4.5	5.7	6.15	1.0
444.4423896	2.0	FILLER	1.697563001	7_2	75	nagykövet	befolyásos	1			7228	9	3	2	1470	10	4	5	2.8	5.95	5.05	6.35	0.0
454.4428383	2.0	DISTANT	0.897464231	7_2	59	műemlék	természeti	1		1	1457	7	3	1	3805	10	4	6	2.45	4.95	5.05	4.45	1.0
466.4424157	2.0	REPEAT	1.065434809	7_2	40	kesztyű	férfias	1		1	891	7	2	1	506	7	3	6	1.7	5.45	4.85	5.4	1.0
474.4428014	2.0	REPEAT	0.87353763	7_2	41	királynő	szépséges	1		1	2060	8	3	2	414	9	3	8	2.6	5.15	6.55	6.7	1.0
478.4429953	2.0	CLOSE	1.10531982	7_2	80	színdarab	mulatságos	2		1	571	9	3	1	401	10	4	5	3.3	5.9	6.2	6.9	0.8485735059999999
486.4593892	2.0	CLOSE	1.144855192	7_2	82	találmány	forradalmi	1		1	1346	9	3	4	2505	10	4	3	2.9	4.5	4.35	6.45	1.0
492.4586866	2.0	REPEAT	0.832944632	7_2	34	kánikula	tavaszi	2		1	1200	8	4	1	5301	7	3	7	4.05	5.35	5.25	5.1	1.0
500.4590575	2.0	REPEAT	1.280931234	7_2	35	kapitány	rutinos	2		0	6280	8	3	5	669	7	3	6	1.95	6.0	5.15	6.1	1.0
508.4754521	2.0	FILLER	0.832197454	7_2	26	észrevétel	lényegtelen	1			1877	10	4	3	442	11	4	2	2.95	4.3	2.15	5.9	0.0
514.4757431	2.0	DISTANT	1.032259031	7_2	58	műanyag	nemkívánatos	2		1	3590	7	3	1	888	12	5	1	3.4	4.9	5.1	4.9	0.7246280909999999
520.4750338	2.0	REPEAT	1.320245808	7_2	42	kirándulás	hétvégi	1		1	1896	10	4	4	4177	7	3	5	2.95	6.05	6.3	6.9	1.0
530.4914989	2.0	CLOSE	0.855559765	7_2	81	szőnyeg	mindennapi	2		1	1303	7	2	1	5073	10	4	3	1.35	3.9	5.0	4.05	0.75152117
536.4917922	2.0	CLOSE	0.967543992	7_2	83	tananyag	iskolai	1		0	1192	8	3	3	5542	7	4	3	3.9	5.65	4.85	6.9	1.0
548.4913808	2.0	FILLER	1.119586386	7_2	27	felajánlás	tömeges	1			1792	10	4	4	3303	7	3	8	3.5	4.8	3.9	5.6	0.0
558.4918639	2.0	FILLER	1.439357043	7_2	28	felsorolás	tartalmi	1			1057	10	4	4	1984	8	3	5	1.4	4.15	3.95	6.0	0.0
568.5083482	2.0	REPEAT	0.910935463	7_2	36	kastély	csodálatos	2		1	2771	7	2	4	3144	10	4	8	2.85	6.0	6.75	6.35	1.0
574.5086225	2.0	FILLER	1.118939105	7_2	29	fenyegetés	írásbeli	1			5210	10	4	5	2291	8	4	6	5.5	6.45	5.15	6.45	0.0
582.5110072	2.0	FILLER	1.083671382	7_2	30	fertőzés	hosszútávú	1			3797	8	3	1	563	10	4	1	6.0	5.2	3.65	5.8	0.0
592.5244895	2.0	REPEAT	1.182289654	7_2	37	képregény	izgalmas	2		1	1156	9	3	5	6482	8	3	7	3.45	6.15	5.8	6.7	1.0
600.5248699	2.0	REPEAT	1.286014452	7_2	39	készpénz	csekély	2		0	3600	8	2	3	3258	7	2	2	4.95	4.5	5.7	6.15	1.0
606.54117	2.0	REPEAT	0.925630561	7_2	38	kerékpár	elektromos	2		1	3466	8	3	3	4185	10	4	2	1.75	6.55	6.7	6.95	1.0
612.5414533	2.0	DISTANT	1.037628621	7_2	59	műemlék	vulkáni	2		1	1457	7	3	1	474	7	3	3	2.8	4.85	4.6	5.0	0.654830635
618.5417373	2.0	REPEAT	0.845410235	7_2	40	kesztyű	férfias	2		1	891	7	2	1	506	7	3	6	1.7	5.45	4.85	5.4	1.0
626.541098	2.0	FILLER	1.149629498	7_2	31	focista	rugalmas	1			744	7	3	1	2314	8	3	1	1.85	4.0	3.7	4.0	0.0
634.5405229	2.0	REPEAT	0.781604514	7_2	41	királynő	szépséges	2		1	2060	8	3	2	414	9	3	8	2.6	5.15	6.55	6.7	1.0
638.5407145	2.0	FILLER	1.381376852	7_2	32	főhadnagy	harcias	1			1176	9	3	1	437	7	3	1	3.25	6.0	6.0	5.75	0.0
646.54109	2.0	FILLER	1.117618928	7_2	33	földrengés	sorozatos	1			4360	10	3	5	1199	9	4	5	5.8	6.1	5.0	6.05	0.0
654.5404863	2.0	FILLER	1.205660674	7_2	34	forgatás	tökéletes	1			2380	8	3	5	5587	9	4	4	1.6	4.35	3.65	5.3	0.0
660.5407752	2.0	CLOSE	0.837316532	7_2	82	találmány	újszerű	2		1	1346	9	3	4	1147	7	3	1	2.2	5.1	4.05	5.75	0.758028567
668.5571455	2.0	FILLER	0.86896235	7_2	35	frontember	lendületes	1			588	10	3	0	483	10	4	8	1.6	4.6	5.6	5.6	0.0
674.5574386	2.0	REPEAT	0.900963698	7_2	42	kirándulás	hétvégi	2		1	1896	10	4	4	4177	7	3	5	2.95	6.05	6.3	6.9	1.0
682.5608241	2.0	FILLER	0.873658275	7_2	36	fürdőszoba	keskeny	1			729	10	4	1	762	7	2	1	2.45	6.4	6.6	6.35	0.0
690.5742195	2.0	CLOSE	0.716298034	7_2	83	tananyag	közoktatási	2		0	1192	8	3	3	2515	11	5	5	4.3	5.05	4.0	6.25	0.8000201579999999
696.5735099	2.0	FILLER	0.988301555	7_2	37	gombnyomás	fölösleges	1			1163	10	3	1	1092	10	4	7	2.05	4.4	4.55	6.35	0.0
