onset	duration	trial_type	response_time	stim_list	itemno	noun	adjective	order	response	correctness	noun_freq	noun_char	noun_syll	noun_phon	adj_freq	adj_char	adj_syll	adj_phon	arousal	concreteness	imageability	meaningfulness	cosine
22.073935679995884	1.1364780399389929	TARGET	1.1364780399389929	8_1	51	magazin	tudományos		old	1	7307	7	3	2	11632	10	4	5	1.8	6.3	6.45	6.15	1.0
34.083467595892216	1.335285583505538	FOIL	1.335285583505538	8_1	88	pszichiáter	hűséges		new	1	814	11	4	4	1248	7	3	2	2.55	4.9	3.05	5.05	0.0
40.0827168355263	1.11925102240275	DISTANT	1.11925102240275	8_1	13	bölcsőde	lokális		old	0	1219	8	3	1	578	7	3	3	1.75	4.7	5.35	6.55	0.6315799952000001
48.08306314327547	1.1753111262632956	TARGET	1.1753111262632956	8_1	52	matrica	fizetős		old	1	1479	7	3	2	2152	7	3	2	2.75	5.8	5.4	5.6	1.0
58.08250551607853	1.0473501565820698	TARGET	1.0473501565820698	8_1	53	mellény	sportos		old	1	909	7	2	5	700	7	2	7	1.45	5.9	6.0	6.0	1.0
68.08292661810538	1.5433299641754274	DISTANT	1.5433299641754274	8_1	14	boríték	lakossági		new	1	1364	7	3	3	6638	9	4	7	1.5	3.15	3.85	3.5	0.602748156
72.08210183189658	1.423284636794051	DISTANT	1.423284636794051	8_1	15	csecsemő	tevékeny		new	1	2039	8	3	2	403	8	3	2	2.4	4.65	4.65	4.15	0.655481756
82.08253241128114	1.4070757947783932	FOIL	1.4070757947783932	8_1	89	publicista	hiteles		new	1	1111	10	4	1	4985	7	3	8	1.7	4.2	3.1	5.35	0.0
92.09897716264368	1.510678163810553	FOIL	1.510678163810553	8_1	90	rokonság	tipikus		new	1	777	8	3	3	1673	7	3	3	2.95	4.25	3.65	3.5	0.0
102.09940927889602	1.2863952283296385	FOIL	1.2863952283296385	8_1	91	rosszullét	klinikai		new	1	742	10	3	1	1131	8	4	2	5.9	5.0	4.25	4.1	0.0
106.10258316893125	1.5072709258765826	CLOSE	1.5072709258765826	8_1	76	szakadék	rettenetes		new	1	1478	8	3	4	868	10	4	8	5.2	5.15	6.55	6.15	0.891412258
110.11574593715976	1.0940461193813462	TARGET	1.0940461193813462	8_1	54	menetrend	szokásos		old	1	4833	9	3	2	8246	8	3	6	1.7	5.4	4.45	6.65	1.0
120.1151785764605	0.9900090726487178	TARGET	0.9900090726487178	8_1	55	mikrofon	vezetékes		old	1	1847	8	3	1	3193	9	4	8	1.25	6.45	6.75	6.25	1.0
126.11843776270962	0.9065645297869196	TARGET	0.9065645297869196	8_1	56	monitor	kijelzős		old	1	3644	7	3	3	489	8	3	2	1.25	6.0	6.15	5.15	1.0
138.1319696355722	1.1333387294507702	FOIL	1.1333387294507702	8_1	92	sorrend	javítási		new	1	3666	7	2	5	518	8	4	4	1.75	4.75	3.65	6.15	0.0
148.13146374962253	1.3493261599141988	FOIL	1.3493261599141988	8_1	93	sorsolás	helytelen		new	1	1643	8	3	4	1039	9	3	3	4.05	4.6	3.0	5.65	0.0
158.13182337690068	1.365389767834131	FOIL	1.365389767834131	8_1	94	szállítás	időigényes		new	1	4813	9	3	5	395	10	5	1	3.15	5.6	4.15	5.9	0.0
164.1310941326965	1.1093451351189287	DISTANT	1.1093451351189287	8_1	16	csengőhang	általános		old	0	2279	10	3	1	25132	9	4	3	2.4	5.65	4.6	5.45	0.712553442
170.14734293329911	1.4447055129003274	CLOSE	1.4447055129003274	8_1	77	szélvihar	váratlan		old	0	490	9	3	0	2782	8	3	8	4.2	6.1	5.9	6.65	0.850282848
178.14768975333843	1.2287703359743318	FOIL	1.2287703359743318	8_1	95	szekrény	kaotikus		new	1	1129	8	2	4	699	8	4	1	2.75	4.25	5.85	5.1	0.0
188.14713315071916	1.1646649805516065	TARGET	1.1646649805516065	8_1	57	műalkotás	korabeli		old	1	784	9	4	1	2056	8	4	3	2.0	5.45	4.75	6.2	1.0
192.1473065607397	1.1406624211522285	CLOSE	1.1406624211522285	8_1	78	szemüveg	ideális		new	1	1594	8	3	4	3414	7	4	1	1.9	5.3	5.0	5.5	0.84095335
200.1476408296849	1.2366962240685098	FOIL	1.2366962240685098	8_1	96	szenzor	mágneses		new	1	959	7	2	3	692	8	3	6	1.55	5.1	3.95	5.4	0.0
206.15090129665717	1.5213729770312057	TARGET	1.5213729770312057	8_1	58	műanyag	felesleges		old	1	3590	7	3	1	4304	10	4	7	3.55	4.95	5.15	6.3	1.0
210.16408686177147	1.4120621653146372	TARGET	1.4120621653146372	8_1	59	műemlék	természeti		old	1	1457	7	3	1	3805	10	4	6	2.45	4.95	5.05	4.45	1.0
216.1643465925836	1.148015825649054	CLOSE	1.148015825649054	8_1	79	szerszám	alattomos		new	1	812	8	2	4	304	9	4	1	3.2	2.5	2.4	2.45	0.781269133
222.16360633415297	1.4357714389334433	DISTANT	1.4357714389334433	8_1	17	csillagász	tisztességes		old	0	606	10	3	4	3762	12	4	7	1.35	4.4	3.5	5.45	0.601381719
228.180854099418	1.651331107605074	TARGET	1.651331107605074	8_1	60	mutatvány	szánalmas		old	1	716	9	3	3	685	9	3	4	4.45	4.9	3.5	6.1	1.0
234.18011435327844	1.2914090063586627	DISTANT	1.2914090063586627	8_1	18	csomagolás	karakteres		new	1	1577	10	4	4	625	10	4	6	1.85	4.5	4.7	5.35	0.7101491090000001
242.1804604048839	1.339170787608964	FOIL	1.339170787608964	8_1	97	szerencse	viszonylagos		new	1	5746	9	3	1	698	12	4	3	3.2	3.45	2.45	3.85	0.0
254.1969804628125	1.3147581404082302	FOIL	1.3147581404082302	8_1	98	szivárgás	fokozatos		new	1	520	9	3	1	1177	9	4	7	4.05	5.25	4.35	6.25	0.0
262.19732677056254	1.5464761905732305	DISTANT	1.5464761905732305	8_1	19	diáklány	törékeny		old	0	819	8	3	4	854	8	3	1	3.7	6.1	6.6	6.6	0.649407744
272.2127707642494	1.4501708741863697	TARGET	1.4501708741863697	8_1	61	művészet	vizuális		old	1	6299	8	3	1	1406	8	4	1	2.15	4.8	4.3	5.65	1.0
280.2131063139177	1.114074080145656	TARGET	1.114074080145656	8_1	62	nagymama	kedvenc		old	1	1874	8	3	1	9838	7	2	3	3.25	6.0	5.9	6.8	1.0
288.2124754293118	1.114100975348265	TARGET	1.114100975348265	8_1	38	kerékpár	elektromos		new	0	3466	8	3	3	4185	10	4	2	1.75	6.55	6.7	6.95	1.0
296.21279817174127	1.554104694569105	FOIL	1.554104694569105	8_1	99	szörnyeteg	láthatatlan		new	1	531	10	3	0	1239	11	4	4	4.55	3.3	4.05	5.35	0.0
300.2129720940511	2.081821353356645	DISTANT	2.081821353356645	8_1	20	diktátor	rosszindulatú		new	1	1821	8	3	4	2105	13	5	3	6.2	5.85	5.7	6.6	0.6793145540000001
306.2162312802984	1.1427113232894044	FOIL	1.1427113232894044	8_1	100	táplálék	elégséges		new	1	945	8	3	3	1780	9	4	5	3.3	4.95	4.65	6.2	0.0
316.2296658181449	1.249439683280798	TARGET	1.249439683280798	8_1	39	készpénz	csekély		old	1	3600	8	2	3	3258	7	2	2	4.95	4.5	5.7	6.15	1.0
326.2320968883023	1.3180982684098126	CLOSE	1.3180982684098126	8_1	80	színdarab	mulatságos		new	1	571	9	3	1	401	10	4	5	3.3	5.9	6.2	6.9	0.8485735059999999
336.245542696518	1.0727241151616909	TARGET	1.0727241151616909	8_1	40	kesztyű	férfias		old	1	891	7	2	1	506	7	3	6	1.7	5.45	4.85	5.4	1.0
348.2450606320317	1.320649982761097	FOIL	1.320649982761097	8_1	51	jutalom	kívánatos		new	1	3275	7	3	1	1846	9	4	2	3.0	4.9	4.2	5.85	0.0
354.2453090924746	1.6247906656753912	CLOSE	1.6247906656753912	8_1	81	szőnyeg	mindennapi		new	1	1303	7	2	1	5073	10	4	3	1.35	3.9	5.0	4.05	0.75152117
358.2454830147826	1.5527719732526748	DISTANT	1.5527719732526748	8_1	21	díszlet	kulturális		new	1	1420	7	2	3	24926	10	4	1	1.65	4.6	4.1	4.5	0.683287978
366.2488298025482	1.3573916469140386	CLOSE	1.3573916469140386	8_1	82	találmány	újszerű		new	1	1346	9	3	4	1147	7	3	1	2.2	5.1	4.05	5.75	0.758028567
376.2612620458485	1.0560967325673118	TARGET	1.0560967325673118	8_1	41	királynő	szépséges		old	1	2060	8	3	2	414	9	3	8	2.6	5.15	6.55	6.7	1.0
384.261619367825	1.0717492281073646	TARGET	1.0717492281073646	8_1	42	kirándulás	hétvégi		old	1	1896	10	4	4	4177	7	3	5	2.95	6.05	6.3	6.9	1.0
390.2778714983097	1.1513656871520652	TARGET	1.1513656871520652	8_1	43	kolbász	tonnányi		old	1	867	7	2	2	533	8	3	1	2.6	6.05	5.95	6.15	1.0
398.2782147323205	1.6554583685319813	CLOSE	1.6554583685319813	8_1	83	tananyag	közoktatási		old	0	1192	8	3	3	2515	11	5	5	4.3	5.05	4.0	6.25	0.8000201579999999
408.27765070150326	1.4795040627122944	FOIL	1.4795040627122944	8_1	52	kertész	szakképzett		new	1	2363	7	2	5	480	11	3	1	1.25	6.2	6.2	6.7	0.0
416.2779936793713	1.271453278422996	FOIL	1.271453278422996	8_1	53	kézikönyv	földrajzi		new	1	662	9	3	2	2472	9	3	5	1.8	6.1	6.15	6.2	0.0
422.27825289789416	1.351217789153452	TARGET	1.351217789153452	8_1	44	kollégium	főiskolai		old	1	3139	9	4	3	1294	9	5	2	2.5	6.6	6.2	6.45	1.0
432.2776886109323	1.2474817125439586	CLOSE	1.2474817125439586	8_1	84	tanfolyam	elméleti		old	0	1871	9	3	2	2162	8	4	8	2.65	4.65	4.05	6.55	0.8934527640000001
442.2781184218829	1.5912098281733051	TARGET	1.5912098281733051	8_1	45	kolostor	hajdani		new	0	1099	8	3	4	1367	7	3	7	2.3	4.65	5.65	5.75	1.0
448.27737816345234	1.303474450325666	TARGET	1.303474450325666	8_1	46	költészet	mágikus		old	1	1207	9	3	4	454	7	3	1	2.6	3.0	3.15	3.85	1.0
456.2777249834917	1.6314670795036363	TARGET	1.6314670795036363	8_1	47	kommentár	terjedelmes		old	1	2449	9	3	2	699	11	4	5	2.2	4.4	4.0	5.3	1.0
460.2768971235464	1.6155043926264625	CLOSE	1.6155043926264625	8_1	85	távirat	kulturált		old	0	635	7	3	2	578	9	3	1	1.7	3.45	2.2	3.7	0.7990051509999999
470.2773307766665	1.5835134458084212	FOIL	1.5835134458084212	8_1	54	kiképzés	lélektani		new	1	1449	8	3	5	743	9	4	7	4.2	4.4	2.7	4.3	0.0
482.276849480616	1.2392551104730956	CLOSE	1.2392551104730956	8_1	86	telefonszám	háztartási		old	0	4732	11	4	2	1415	10	4	4	2.1	4.3	3.4	4.5	0.7732623820000001
492.2772826214468	1.59151412817846	FOIL	1.59151412817846	8_1	55	kitüntetés	jelképes		old	0	4318	10	4	5	1178	8	3	8	3.25	4.95	4.5	6.1	0.0
500.27662842766495	1.5035171240488123	FOIL	1.5035171240488123	8_1	56	korlátozás	munkahelyi		new	1	7015	10	4	4	1797	10	4	7	4.6	4.8	3.75	5.65	0.0
508.276974735415	1.8554761962095652	DISTANT	1.8554761962095652	8_1	22	díszterem	miniszteri		new	1	1123	9	3	1	4544	10	4	7	2.6	6.6	5.9	5.45	0.636730134
516.2763236153705	1.6235089171677828	CLOSE	1.6235089171677828	8_1	87	tévéműsor	hihetetlen		old	0	648	9	4	1	3434	10	4	2	3.2	3.95	4.3	5.2	0.7619771956999999
524.2766673616725	1.3512280349441426	TARGET	1.3512280349441426	8_1	48	legénység	katonai		old	1	1179	9	3	4	14642	7	4	3	4.35	6.0	5.9	6.15	1.0
534.2931008426649	1.0788472562526294	DISTANT	1.0788472562526294	8_1	23	egyenruha	vasutas		new	1	1598	9	4	1	1481	7	3	6	1.35	6.25	6.8	6.75	0.63155067
540.2923715984607	1.1348530574196047	TARGET	1.1348530574196047	8_1	49	lépcsőház	emeletes		old	1	634	9	3	1	491	8	4	8	1.65	6.05	6.5	6.1	1.0
548.2927189307911	1.6068303056163131	FOIL	1.6068303056163131	8_1	57	korosztály	szerencsés		new	1	4689	10	3	5	5339	10	3	8	2.75	4.45	3.65	6.0	0.0
554.292976868589	1.726831063804639	FOIL	1.726831063804639	8_1	58	korszak	bizonytalan		new	1	5827	7	2	4	5295	11	4	1	5.45	3.85	3.0	5.4	0.0
560.2922255959338	1.5108736022812082	FOIL	1.5108736022812082	8_1	59	követelés	eredményes		new	1	5876	9	4	3	5287	10	4	8	3.55	4.65	2.9	6.0	0.0
564.2923984936633	1.39853669607146	TARGET	1.39853669607146	8_1	50	levéltár	régészeti		old	1	1665	8	3	3	1293	9	4	4	1.85	4.6	5.6	5.75	1.0
572.308745141575	1.1102196134161204	FOIL	1.1102196134161204	8_1	60	közvetítés	globális		new	1	2665	10	4	5	8481	8	3	1	3.05	5.45	5.4	5.75	0.0
578.3090053846763	1.3501816834959754	FOIL	1.3501816834959754	8_1	61	kritika	érthetetlen		new	1	6864	7	3	1	2277	11	4	4	4.55	4.65	3.25	5.85	0.0
586.3123631866665	1.4987464274199738	CLOSE	1.4987464274199738	8_1	63	napsütés	zavartalan		new	1	3340	8	3	2	1197	10	4	1	2.75	5.95	6.1	5.75	0.824103177
594.3416991927852	1.2288648534013191	FOIL	1.2288648534013191	8_1	62	küldemény	dobozos		new	1	1003	9	3	3	970	7	3	7	1.9	5.6	6.75	6.45	0.0
598.3418720905165	1.3729027505341946	DISTANT	1.3729027505341946	8_1	24	étterem	milliárdos		new	1	4657	7	3	4	7498	10	4	7	2.4	4.75	5.15	4.95	0.604082525
