onset	duration	trial_type	response_time	stim_list	itemno	noun	adjective	order	response	correctness	noun_freq	noun_char	noun_syll	noun_phon	adj_freq	adj_char	adj_syll	adj_phon	arousal	concreteness	imageability	meaningfulness	cosine
22.083083739729773	2.0	FILLER	1.371733649455564	7_1	1	ábrázolás	szokatlan	1	good		839	9	4	4	3495	9	3	1	2.55	4.45	3.45	6.05	0.0
30.0824894794132	2.0	FILLER	1.0434801318551763	7_1	2	adottság	pozitív	1	good		1928	8	3	3	10499	7	3	1	2.15	3.8	3.0	6.0	0.0
40.08300715187215	2.0	DISTANT	1.6917423174600117	7_1	60	mutatvány	szánalmas	1	good	1	716	9	3	3	685	9	3	4	4.45	4.9	3.5	6.1	1.0
46.0823009554515	2.0	REPEAT	1.4275193243447577	7_1	43	kolbász	tonnányi	1	no-good	1	867	7	2	2	533	8	3	1	2.6	6.05	5.95	6.15	1.0
56.09880960949522	2.0	FILLER	1.4748447302808927	7_1	3	alapanyag	folyékony	1	no-good		2168	9	4	4	612	9	3	1	1.75	5.6	5.6	6.45	0.0
66.0993103762703	2.0	DISTANT	1.3388641380042827	7_1	61	művészet	vizuális	1	good	1	6299	8	3	1	1406	8	4	1	2.15	4.8	4.3	5.65	1.0
74.11572195072222	2.0	FILLER	1.3621845009220124	7_1	4	államférfi	diszkrét	1	good		599	10	4	4	535	8	2	1	1.8	3.8	3.65	4.7	0.0
80.11602650913119	2.0	REPEAT	1.3544219755422091	7_1	44	kollégium	főiskolai	1	no-good	0	3139	9	4	3	1294	9	5	2	2.5	6.6	6.2	6.45	1.0
86.11533004628654	2.0	FILLER	1.154201586930867	7_1	5	áramlat	belföldi	1	good		1372	7	3	2	3239	8	3	4	1.8	3.05	2.25	2.8	0.0
92.13263070589164	2.0	REPEAT	1.0975401465111645	7_1	45	kolostor	hajdani	1	good	1	1099	8	3	4	1367	7	3	7	2.3	4.65	5.65	5.75	1.0
100.13200493953264	2.0	FILLER	1.9137433712421623	7_1	6	asszisztens	tárgyalási	1	good		1083	11	3	4	2106	10	4	6	2.05	4.45	4.4	5.25	0.0
104.13224930347133	2.0	REPEAT	1.6732892539002933	7_1	46	költészet	mágikus	1	no-good	1	1207	9	3	4	454	7	3	1	2.6	3.0	3.15	3.85	1.0
108.13544755101977	2.0	DISTANT	1.7262821614567656	7_1	62	nagymama	kedvenc	1	good	1	1874	8	3	1	9838	7	2	3	3.25	6.0	5.9	6.8	1.0
120.14905559996988	2.0	CLOSE	1.4411973013411623	7_1	84	tanfolyam	gyakorlati	1	good	1	1871	9	3	2	3948	10	4	8	1.9	6.1	4.1	6.1	1.0
126.14837066372274	2.0	CLOSE	1.464912130159064	7_1	85	távirat	udvarias	1	no-good	0	635	7	3	2	446	8	4	1	2.1	4.8	4.45	5.15	1.0
136.16586497022217	2.0	REPEAT	1.384193648944347	7_1	47	kommentár	terjedelmes	1	good	1	2449	9	3	2	699	11	4	5	2.2	4.4	4.0	5.3	1.0
140.1650678417318	2.0	FILLER	2.2959754488510953	7_1	7	bábszínház	virtuális	1	no-good		636	10	3	2	5945	9	4	1	1.85	4.6	4.95	4.6	0.0
148.168475617269	2.0	CLOSE	1.0929394958475314	7_1	86	telefonszám	otthoni	1	good	1	4732	11	4	2	4288	7	3	8	1.4	6.5	4.3	6.65	1.0
154.18178141312455	2.0	CLOSE	1.295560491216747	7_1	87	tévéműsor	félelmetes	1	good	0	648	9	4	1	1112	10	4	2	5.45	5.8	5.05	6.6	1.0
162.18218689333298	2.0	FILLER	1.2797590581758411	7_1	8	bankrablás	tavalyi	1	good		535	10	3	2	16956	7	3	7	3.8	5.35	4.15	6.15	0.0
168.18548683111294	2.0	DISTANT	0.972103064206749	7_1	63	napsütés	felhőtlen	1	good	1	3340	8	3	2	612	9	3	1	3.0	6.1	6.45	6.6	1.0
174.19881081338465	2.0	FILLER	1.2870620564026467	7_1	9	becslés	szakszerű	1	good		7246	7	2	4	968	9	3	2	2.1	5.25	2.4	6.0	0.0
184.19830287450168	2.0	REPEAT	0.9428319014332374	7_1	48	legénység	katonai	1	good	1	1179	9	3	4	14642	7	4	3	4.35	6.0	5.9	6.15	1.0
190.2146096849574	2.0	REPEAT	0.9022216370685784	7_1	43	kolbász	tonnányi	2	no-good	1	867	7	2	2	533	8	3	1	2.6	6.05	5.95	6.15	1.0
198.2150225934165	2.0	DISTANT	1.9181421783177937	7_1	60	mutatvány	szabálytalan	2	no-good	1	716	9	3	3	909	12	4	1	3.55	3.95	4.6	5.05	0.609612226
204.2153181866961	2.0	FILLER	1.373987228012993	7_1	10	berendezés	egyszerű	1	good		6368	10	4	5	22554	8	3	3	1.5	5.45	5.7	6.15	0.0
210.23163396228483	2.0	DISTANT	1.0856774810963543	7_1	61	művészet	strukturális	2	good	1	6299	8	3	1	2005	12	4	2	2.05	3.3	3.25	3.8	0.65917778
218.2320394424896	2.0	DISTANT	1.1333012979193882	7_1	64	novella	tanulságos	1	good	1	925	7	3	1	805	10	4	6	2.45	5.4	3.05	6.5	1.0
222.23123155583744	2.0	CLOSE	1.221563555245666	7_1	88	törmelék	építkezési	1	good	1	730	8	3	1	395	10	5	7	1.9	6.55	6.8	6.4	1.0
226.23141521301292	2.0	REPEAT	1.077741800552758	7_1	44	kollégium	főiskolai	2	no-good	0	3139	9	4	3	1294	9	5	2	2.5	6.6	6.2	6.45	1.0
236.24793718668295	2.0	FILLER	1.356902500068827	7_1	11	borvidék	csapadékos	1	good		827	8	3	2	840	10	4	4	2.55	5.5	6.15	5.65	0.0
240.2481503007293	2.0	REPEAT	1.3088901087176057	7_1	45	kolostor	hajdani	2	good	1	1099	8	3	4	1367	7	3	7	2.3	4.65	5.65	5.75	1.0
246.2484492239128	2.0	REPEAT	1.1730811347188137	7_1	46	költészet	mágikus	2	no-good	1	1207	9	3	4	454	7	3	1	2.6	3.0	3.15	3.85	1.0
254.2648556754284	2.0	DISTANT	1.6282627644941383	7_1	62	nagymama	bámulatos	2	no-good	1	1874	8	3	1	305	9	4	5	3.15	6.25	6.0	6.5	0.621415973
260.26415972487666	2.0	CLOSE	1.340422534452955	7_1	85	távirat	kulturált	2	good	0	635	7	3	2	578	9	3	1	1.7	3.45	2.2	3.7	0.7990051509999999
272.26475296060744	2.0	CLOSE	1.3882633075227204	7_1	84	tanfolyam	elméleti	2	no-good	1	1871	9	3	2	2162	8	4	8	2.65	4.65	4.05	6.55	0.8934527640000001
278.26408467389774	2.0	FILLER	1.55641310620922	7_1	12	bűntett	embertelen	1	good		7349	7	2	1	964	10	4	1	6.6	5.6	4.3	6.1	0.0
286.26448964181327	2.0	FILLER	1.1882040351811156	7_1	113	választék	egyforma	1	good		1419	9	3	4	1192	8	3	2	2.25	4.75	4.5	5.15	0.0
290.2806819546968	2.0	CLOSE	1.819650446861488	7_1	87	tévéműsor	hihetetlen	2	good	0	648	9	4	1	3434	10	4	2	3.2	3.95	4.3	5.2	0.7619771956999999
296.28098548851995	2.0	FILLER	1.8516065392177552	7_1	114	vallomás	következetes	1	good		6889	8	3	5	1340	12	5	3	3.8	3.9	2.75	4.95	0.0
302.28128466785347	2.0	REPEAT	1.2435673241852785	7_1	47	kommentár	terjedelmes	2	good	1	2449	9	3	2	699	11	4	5	2.2	4.4	4.0	5.3	1.0
308.2845892162768	2.0	CLOSE	1.1120764710576625	7_1	86	telefonszám	háztartási	2	good	1	4732	11	4	2	1415	10	4	4	2.1	4.3	3.4	4.5	0.7732623820000001
314.297909868641	2.0	REPEAT	1.4991922414192231	7_1	48	legénység	katonai	2	no-good	1	1179	9	3	4	14642	7	4	3	4.35	6.0	5.9	6.15	1.0
320.2971985492877	2.0	FILLER	1.3949092894945352	7_1	115	védekezés	célszerű	1	good		5447	9	4	4	2801	8	3	4	3.35	4.45	3.55	5.8	0.0
326.2975074621936	2.0	REPEAT	1.154896512896812	7_1	49	lépcsőház	emeletes	1	good	1	634	9	3	1	491	8	4	8	1.65	6.05	6.5	6.1	1.0
332.31380966200595	2.0	DISTANT	1.458257439204317	7_1	63	napsütés	hosszas	2	good	1	3340	8	3	2	1776	7	2	7	2.9	5.35	6.4	6.35	0.72304523
338.314127027752	2.0	FILLER	1.89019017098326	7_1	116	védőoltás	hatékony	1	good		1615	9	4	1	12155	8	3	2	3.85	5.3	4.55	6.55	0.0
350.31373409873413	2.0	DISTANT	1.2424620512247202	7_1	64	novella	körülményes	2	no-good	1	925	7	3	1	379	11	4	6	3.1	3.75	2.55	3.95	0.6815447809999999
358.3141306138059	2.0	CLOSE	1.1784438217800923	7_1	89	tudomány	mérnöki	1	good	1	3986	8	3	5	877	7	3	6	1.7	4.75	3.4	6.0	1.0
368.3606202130977	2.0	CLOSE	1.1562082400851068	7_1	88	törmelék	bontási	2	good	1	730	8	3	1	388	7	3	8	2.1	6.2	5.95	6.35	0.8136036990000001
374.33094254553	2.0	DISTANT	1.2258048321018578	7_1	65	olimpikon	legendás	1	good	1	644	9	4	2	3949	8	3	5	2.15	5.8	5.5	6.6	1.0
380.3302417281921	2.0	REPEAT	1.4576109249646834	7_1	50	levéltár	régészeti	1	no-good	1	1665	8	3	3	1293	9	4	4	1.85	4.6	5.6	5.75	1.0
388.3346692236919	2.0	REPEAT	0.0	7_1	1	akadály	lehetetlen	1		0	6030	7	3	2	5822	10	4	6	5.4	4.65	3.6	6.3	1.0
398.34715535014766	2.0	REPEAT	1.3208659909687412	7_1	2	albérlet	szegényes	1	good	1	547	8	3	1	439	9	3	7	4.5	5.55	6.5	6.05	1.0
404.34746528763935	2.0	FILLER	0.0	7_1	117	végeredmény	lehetséges	1			5372	11	4	4	14891	10	4	4	2.9	4.15	4.25	6.2	0.0
410.3637800386423	2.0	REPEAT	1.208226253344037	7_1	3	alkatrész	műszaki	1	good	1	2625	9	3	2	11955	7	3	1	1.6	5.9	5.6	6.45	1.0
420.36328618782863	2.0	CLOSE	1.4483092141344969	7_1	90	tűzijáték	nagyszabású	1	good	1	1585	9	4	1	3070	11	4	1	2.9	6.2	6.9	6.6	1.0
424.3634795785765	2.0	REPEAT	1.3442017226880123	7_1	4	alkohol	legális	1	good	1	3138	7	3	2	1848	7	3	3	2.75	5.45	5.2	5.3	1.0
430.3807843365285	2.0	DISTANT	1.1915649358743394	7_1	66	oroszlán	nyugodt	1	good	1	1351	8	3	3	2967	7	2	2	2.1	5.9	6.5	6.35	1.0
438.38019929749134	2.0	REPEAT	1.2158581439180125	7_1	5	állatkert	egzotikus	1	good	1	2056	9	3	3	643	9	4	1	2.95	5.45	5.6	6.45	1.0
442.38039268824286	2.0	DISTANT	1.399645185607369	7_1	67	osztályzat	közepes	1	good	1	1028	10	3	3	4363	7	3	8	4.55	6.45	6.4	6.95	1.0
450.3798145651672	2.0	FILLER	1.7035908948055294	7_1	118	veszekedés	hétköznapi	1	good		735	10	4	3	2641	10	4	3	5.55	5.05	6.0	6.45	0.0
460.3803055983663	2.0	CLOSE	1.2878125661991362	7_1	91	újságcikk	botrányos	1	good	0	503	9	3	0	1508	9	3	4	3.75	5.45	5.65	6.55	1.0
466.3796047810283	2.0	REPEAT	1.6635938456129225	7_1	6	áruházlánc	veszteséges	1	good	1	935	10	4	2	1234	11	4	8	2.7	4.85	4.1	5.9	1.0
474.3970153275623	2.0	FILLER	1.2311452344038116	7_1	119	vészhelyzet	időjárási	1	good		1043	11	3	2	1814	9	5	1	4.75	5.4	5.15	6.0	0.0
482.396416456606	2.0	FILLER	1.4789548600383569	7_1	120	vetélytárs	egyedüli	1	no-good		2392	10	3	2	2749	8	4	5	3.25	4.7	4.7	5.95	0.0
488.39972587181546	2.0	REPEAT	1.6754816134052817	7_1	7	ásványvíz	minőségi	1	good	1	963	9	3	1	4832	8	4	2	1.85	6.05	5.25	6.4	1.0
494.4130311553781	2.0	REPEAT	1.0302926757649402	7_1	49	lépcsőház	emeletes	2	good	1	634	9	3	1	491	8	4	8	1.65	6.05	6.5	6.1	1.0
500.413345959656	2.0	FILLER	1.446258759897319	7_1	121	vetítés	egyszeri	1	good		1678	7	3	4	2982	8	3	3	1.55	5.8	4.2	6.15	0.0
508.4167370856594	2.0	CLOSE	1.4828698060155148	7_1	92	útlezárás	helyszíni	1	no-good	1	1291	9	4	3	4087	9	3	7	3.75	6.6	6.45	6.5	1.0
516.430158403673	2.0	REPEAT	1.085795052425965	7_1	8	aszfalt	hibátlan	1	good	1	977	7	2	4	863	8	3	1	1.95	6.3	6.7	6.65	1.0
526.4296632721234	2.0	CLOSE	1.4055460368617787	7_1	89	tudomány	építészeti	2	good	1	3986	8	3	5	1116	10	5	7	1.75	3.95	4.45	5.85	0.7951859240000001
538.4462636266835	2.0	REPEAT	1.3489258360568783	7_1	50	levéltár	régészeti	2	good	1	1665	8	3	3	1293	9	4	4	1.85	4.6	5.6	5.75	1.0
546.4466688507455	2.0	FILLER	1.56485339572464	7_1	122	vezetőség	tartományi	1	no-good		3803	9	4	2	2253	10	4	7	2.0	3.7	2.35	3.85	0.0
554.4630934886736	2.0	DISTANT	1.2684704174935175	7_1	65	olimpikon	bravúros	2	good	1	644	9	4	2	461	8	3	2	2.9	5.15	5.5	6.5	0.613806427
562.462487189463	2.0	REPEAT	1.5644661019287014	7_1	1	akadály	lehetetlen	2	no-good	0	6030	7	3	2	5822	10	4	6	5.4	4.65	3.6	6.3	1.0
568.4667804641031	2.0	FILLER	1.7368236222573614	7_1	123	villany	infravörös	1	good		826	7	2	5	464	10	4	1	1.95	5.75	5.95	4.8	0.0
572.4789886713988	2.0	REPEAT	1.3716373382994789	7_1	2	albérlet	szegényes	2	good	1	547	8	3	1	439	9	3	7	4.5	5.55	6.5	6.05	1.0
578.4792881068788	2.0	REPEAT	0.8436206539263367	7_1	4	alkohol	legális	2	good	1	3138	7	3	2	1848	7	3	3	2.75	5.45	5.2	5.3	1.0
586.4796989661663	2.0	REPEAT	1.3713781178521458	7_1	3	alkatrész	műszaki	2	good	1	2625	9	3	2	11955	7	3	1	1.6	5.9	5.6	6.45	1.0
594.4961200180442	2.0	CLOSE	1.3469691315076489	7_1	90	tűzijáték	nevezetes	2	good	1	1585	9	4	1	817	9	4	5	2.8	4.0	5.05	3.5	0.772080302
604.4966102828039	2.0	FILLER	1.0188928674178896	7_1	124	zaklatás	pszichés	1	good		1370	8	3	3	534	8	2	5	6.05	5.05	3.1	5.55	0.0
614.5121199647656	2.0	DISTANT	1.0505597701630904	7_1	67	osztályzat	alapfokú	2	good	1	1028	10	3	3	821	8	4	4	2.6	4.3	2.9	3.95	0.713177145
626.5127237025081	2.0	DISTANT	1.16232630372906	7_1	66	oroszlán	jelentéktelen	2	good	1	1351	8	3	3	1068	13	5	3	4.0	3.05	3.55	3.15	0.658192992
630.5159314274824	2.0	REPEAT	1.0225603756953203	7_1	5	állatkert	egzotikus	2	good	1	2056	9	3	3	643	9	4	1	2.95	5.45	5.6	6.45	1.0
636.5292377356309	2.0	FILLER	0.0	7_1	125	zűrzavar	érzelmi	1			667	8	3	1	1869	7	3	7	5.7	4.6	3.65	5.8	0.0
648.532845049438	2.0	REPEAT	0.9421400492246904	7_1	7	ásványvíz	minőségi	2	good	1	963	9	3	1	4832	8	4	2	1.85	6.05	5.25	6.4	1.0
658.5453665241366	2.0	CLOSE	1.2411971988803998	7_1	91	újságcikk	döbbenetes	2	good	0	503	9	3	0	999	10	4	6	4.35	4.9	4.45	6.6	0.7505655290000001
666.5457684182911	2.0	REPEAT	1.3209881729380868	7_1	6	áruházlánc	veszteséges	2	no-good	1	935	10	4	2	1234	11	4	8	2.7	4.85	4.1	5.9	1.0
676.5622658018801	2.0	CLOSE	1.3842797142315248	7_1	92	útlezárás	félpályás	2	good	1	1291	9	4	3	1206	9	3	2	2.95	6.3	6.3	6.3	0.78665024
682.5625703602927	2.0	REPEAT	1.264533186749759	7_1	8	aszfalt	hibátlan	2	good	1	977	7	2	4	863	8	3	1	1.95	6.3	6.7	6.65	1.0
