onset	duration	trial_type	response_time	stim_list	itemno	noun	adjective	order	response	correctness	noun_freq	noun_char	noun_syll	noun_phon	adj_freq	adj_char	adj_syll	adj_phon	arousal	concreteness	imageability	meaningfulness	cosine
22.08798798575299	1.1068213306571124	TARGET	1.1068213306571124	3_1	26	fejfájás	kellemetlen		old	1	1351	8	3	4	3486	11	4	1	5.85	5.5	5.25	6.7	1.0
34.099535531589936	0.9674828568313388	FOIL	0.9674828568313388	3_1	63	laktanya	községi		new	1	1021	8	3	3	670	7	3	5	2.4	5.45	5.1	4.6	0.0
40.11582432832802	1.1668420835630968	DISTANT	1.1668420835630968	3_1	88	törmelék	életveszélyes		old	0	730	8	3	1	3907	13	5	3	4.75	5.8	6.2	6.4	0.657350659
48.11617934581591	0.9507972909050296	TARGET	0.9507972909050296	3_1	27	folyadék	elegendő		old	1	1438	8	3	3	9296	8	4	1	2.65	4.85	5.45	6.5	1.0
58.11563452460541	0.8228593354651821	TARGET	0.8228593354651821	3_1	28	gorilla	érzékeny		old	1	659	7	3	2	3895	8	3	3	3.1	4.0	4.3	4.9	1.0
68.11609046337253	1.0148469544146792	DISTANT	1.0148469544146792	3_1	89	tudomány	genetikai		new	1	3986	8	3	5	1398	9	5	2	2.4	4.8	2.6	5.45	0.662602782
72.11526798057457	1.3348222210188396	DISTANT	1.3348222210188396	3_1	90	tűzijáték	verhetetlen		new	1	1585	9	4	1	357	11	4	2	2.4	3.2	4.55	3.15	0.664982438
82.11572340704879	1.3348798537263065	FOIL	1.3348798537263065	3_1	64	lázadás	széleskörű		new	1	945	7	3	5	1556	10	4	1	5.55	5.35	5.0	5.25	0.0
92.115179354274	1.0468305467729806	FOIL	1.0468305467729806	3_1	65	leépítés	túlzott		new	1	2318	8	4	4	2708	7	2	2	5.2	4.75	2.7	5.95	0.0
102.11563529304112	1.2388437802655972	FOIL	1.2388437802655972	3_1	66	megjegyzés	egyértelmű		new	1	3288	10	3	4	11495	10	4	1	2.5	5.65	2.5	6.1	0.0
106.11483227728604	1.4229047244225512	CLOSE	1.4229047244225512	3_1	51	magazin	kutatási		old	0	7307	7	3	2	3464	8	4	6	1.7	4.85	4.8	5.1	0.882873833
110.1150049192729	0.9748700894706416	TARGET	0.9748700894706416	3_1	29	hangszer	autentikus		old	1	1828	8	2	3	526	10	5	1	2.0	4.6	3.7	4.7	1.0
120.11545599127568	1.302852972810797	TARGET	1.302852972810797	3_1	30	háziorvos	elégedetlen		old	1	2011	9	4	4	2000	11	5	3	4.1	5.6	5.2	5.6	1.0
126.11473417360683	1.2468862327732495	TARGET	1.2468862327732495	3_1	31	helyezés	végleges		old	1	5834	8	3	4	7802	8	3	3	2.95	4.45	3.65	5.2	1.0
138.11528053169604	1.2629027469811265	FOIL	1.2629027469811265	3_1	67	meglátás	egyoldalú		new	1	1153	8	3	3	1776	9	4	4	3.4	4.35	2.35	6.3	0.0
148.1147316121569	1.5829228390211938	FOIL	1.5829228390211938	3_1	68	mellékhatás	közvetett		new	1	918	11	4	4	1115	9	3	2	4.65	3.85	2.6	5.25	0.0
158.11420497726067	1.214863962472009	FOIL	1.214863962472009	3_1	69	mellékutca	rendezetlen		new	1	573	10	4	0	427	11	4	3	3.45	5.35	5.95	5.85	0.0
164.11446112264093	1.3829416913213208	DISTANT	1.3829416913213208	3_1	91	újságcikk	igazságtalan		new	1	503	9	3	0	1736	12	5	2	5.75	5.35	4.5	5.75	0.626544654
170.11473417360685	1.0629177570954198	CLOSE	1.0629177570954198	3_1	52	matrica	ingyenes		old	0	1479	7	3	2	13952	8	3	1	2.65	6.2	4.8	6.5	0.863539815
178.11811964704248	1.1952104400770622	FOIL	1.1952104400770622	3_1	70	merénylő	gondatlan		new	1	1494	8	3	1	869	9	3	1	5.2	4.7	4.5	4.5	0.0
188.13055499274924	1.2943171843071468	TARGET	1.2943171843071468	3_1	32	horgász	tradicionális		new	0	707	7	2	2	850	13	6	1	2.1	4.65	5.0	4.65	1.0
192.1307383928361	1.4703218441063657	CLOSE	1.4703218441063657	3_1	53	mellény	szabadidős		new	1	909	7	2	5	608	10	4	1	2.05	4.15	4.65	4.85	0.7459257840000001
200.13110288770255	1.054290012405545	FOIL	1.054290012405545	3_1	71	mozdulat	harmonikus		new	1	2331	8	3	5	567	10	4	2	2.25	4.7	4.35	4.3	0.0
206.1303764594195	1.2382861517835408	TARGET	1.2382861517835408	3_1	33	iránytű	hasznos		old	1	794	7	3	2	9089	7	2	7	1.75	5.45	6.15	6.3	1.0
210.1305590910706	1.3102453283499926	TARGET	1.3102453283499926	3_1	34	kánikula	tavaszi		new	0	1200	8	4	1	5301	7	3	7	4.05	5.35	5.25	5.1	1.0
216.1308313736081	1.022297967254417	CLOSE	1.022297967254417	3_1	54	menetrend	változatlan		old	0	4833	9	3	2	3262	11	4	2	1.8	6.25	4.95	7.0	0.812076867
222.14712606168905	1.293605356302578	DISTANT	1.293605356302578	3_1	92	útlezárás	gyorsforgalmi		old	0	1291	9	4	3	882	13	4	3	2.8	5.9	5.45	6.2	0.620973349
228.1473799017549	0.9576450813765404	TARGET	0.9576450813765404	3_1	35	kapitány	rutinos		old	1	6280	8	3	5	669	7	3	6	1.95	6.0	5.15	6.1	1.0
234.14766627228528	1.5573792537106783	DISTANT	1.5573792537106783	3_1	93	útmutatás	lelkiismereti		new	1	703	9	4	2	476	13	6	6	3.5	3.7	2.5	5.05	0.6710424423
242.16401808078808	1.1569922692724504	FOIL	1.1569922692724504	3_1	72	mozzanat	színészi		new	1	983	8	3	2	942	8	3	7	2.7	5.1	4.65	5.25	0.0
254.16356547190665	0.9327083044627216	FOIL	0.9327083044627216	3_1	73	munkagép	kicsiny		new	1	1398	8	3	1	960	7	2	6	1.5	5.35	5.55	5.45	0.0
262.1799313684096	0.8763376231727307	DISTANT	0.8763376231727307	3_1	94	vacsora	ügyészségi		new	1	2517	7	3	1	1538	10	4	4	2.2	4.95	4.9	4.5	0.6062234639999999
272.1803873071767	0.916082420408202	TARGET	0.916082420408202	3_1	36	kastély	csodálatos		old	1	2771	7	2	4	3144	10	4	8	2.85	6.0	6.75	6.35	1.0
280.17975181050133	0.9483731310683652	TARGET	0.9483731310683652	3_1	37	képregény	izgalmas		old	1	1156	9	3	5	6482	8	3	7	3.45	6.15	5.8	6.7	1.0
288.18011553693214	1.1083605082239956	TARGET	1.1083605082239956	3_1	13	bölcsőde	szomszédos		old	1	1219	8	3	1	5450	10	3	7	1.7	6.1	5.1	6.55	1.0
296.1834815433176	1.184755354275694	FOIL	1.184755354275694	3_1	74	munkanap	tetszőleges		new	1	1952	8	3	2	865	11	4	1	2.4	3.95	3.55	5.65	0.0
300.1966681634076	1.0757280996331249	DISTANT	1.0757280996331249	3_1	95	végállomás	belvárosi		new	1	893	10	4	4	2263	9	4	7	2.1	5.7	5.7	6.1	0.709046066
306.1959583845746	1.0357041039314936	FOIL	1.0357041039314936	3_1	75	nagykövet	befolyásos		new	1	7228	9	3	2	1470	10	4	5	2.8	5.95	5.05	6.35	0.0
316.19639229484164	1.243721300510515	TARGET	1.243721300510515	3_1	14	boríték	érvénytelen		old	1	1364	7	3	3	1401	11	4	2	2.8	4.1	4.1	3.4	1.0
326.21284963523794	1.1390472365383175	CLOSE	1.1390472365383175	3_1	55	mikrofon	távközlési		old	0	1847	8	3	1	3781	10	4	8	1.75	3.85	3.55	4.2	0.7811700109999999
336.2163352615098	1.3755073279317005	TARGET	1.3755073279317005	3_1	15	csecsemő	egészséges		old	1	2039	8	3	2	7076	10	4	8	2.6	6.5	6.55	6.6	1.0
348.22885872122424	1.1064132910760236	FOIL	1.1064132910760236	3_1	26	észrevétel	lényegtelen		old	0	1877	10	4	3	442	11	4	2	2.95	4.3	2.15	5.9	0.0
354.22913023531873	0.8181457482569385	CLOSE	0.8181457482569385	3_1	56	monitor	érintős		old	0	3644	7	3	3	784	7	3	3	1.5	6.55	6.45	6.45	0.8547784690000001
358.23232334357454	1.238886044251558	DISTANT	1.238886044251558	3_1	96	ventilátor	nagyobbik		new	1	1165	10	4	3	1603	9	3	1	1.75	5.9	6.55	6.3	0.7033834459999999
366.2456849109585	1.5217530179652383	CLOSE	1.5217530179652383	3_1	57	műalkotás	reneszánsz		new	1	784	9	4	1	1591	10	3	3	2.25	6.25	6.1	6.6	0.743859231
376.249129553973	1.04620811350469	TARGET	1.04620811350469	3_1	16	csengőhang	többféle		old	1	2279	10	3	1	2956	8	3	1	2.25	4.55	3.55	5.8	1.0
384.2614952281365	0.8811175520313554	TARGET	0.8811175520313554	3_1	17	csillagász	figyelmes		old	1	606	10	3	4	1273	9	3	8	1.9	4.4	4.85	5.8	1.0
390.261767510674	0.9931091770995408	TARGET	0.9931091770995408	3_1	18	csomagolás	ízléses		old	1	1577	10	4	4	472	7	3	7	1.35	5.8	6.1	6.05	1.0
398.2651324924736	1.229559278821398	CLOSE	1.229559278821398	3_1	58	műanyag	értelmetlen		old	0	3590	7	3	1	1912	11	4	2	3.0	3.65	3.75	2.75	0.908448935
408.278589089794	1.2004598834028002	FOIL	1.2004598834028002	3_1	27	felajánlás	tömeges		new	1	1792	10	4	4	3303	7	3	8	3.5	4.8	3.9	5.6	0.0
416.2819594506509	1.2768770140974084	FOIL	1.2768770140974084	3_1	28	felsorolás	tartalmi		new	1	1057	10	4	4	1984	8	3	5	1.4	4.15	3.95	6.0	0.0
422.2952326478771	0.807801317256235	TARGET	0.807801317256235	3_1	19	diáklány	ártatlan		old	1	819	8	3	4	2035	8	3	5	2.8	5.3	5.35	6.6	1.0
432.294683728338	1.3198172249030904	CLOSE	1.3198172249030904	3_1	59	műemlék	őshonos		new	1	1457	7	3	1	766	7	3	1	2.2	4.0	3.75	4.0	0.769399345
442.2941396755632	1.1918221490413998	TARGET	1.1918221490413998	3_1	20	diktátor	kegyetlen		old	1	1821	8	3	4	1493	9	3	2	6.0	5.8	6.2	6.7	1.0
448.2944283514007	0.911826564995863	TARGET	0.911826564995863	3_1	21	díszlet	színpadi		old	1	1420	7	2	3	1542	8	3	5	2.1	5.9	6.35	6.75	1.0
456.2947779898386	0.8158294256209047	TARGET	0.8158294256209047	3_1	22	díszterem	patinás		old	1	1123	9	3	1	802	7	3	4	2.3	5.2	5.55	5.05	1.0
460.3109761111118	1.0471883818609058	CLOSE	1.0471883818609058	3_1	60	mutatvány	nevetséges		old	0	716	9	3	3	1625	10	4	3	2.6	4.8	5.3	5.75	0.8695170879999999
470.3114169373075	0.8791575276118238	FOIL	0.8791575276118238	3_1	29	fenyegetés	írásbeli		new	1	5210	10	4	5	2291	8	4	6	5.5	6.45	5.15	6.45	0.0
482.3109635599904	1.335174933206872	CLOSE	1.335174933206872	3_1	61	művészet	látványos		new	1	6299	8	3	1	6475	9	3	4	3.7	4.15	5.45	5.65	0.801142275
492.31043231447984	1.111178363498766	FOIL	1.111178363498766	3_1	30	fertőzés	hosszútávú		new	1	3797	8	3	1	563	10	4	1	6.0	5.2	3.65	5.8	0.0
500.3107840020821	0.9352087956212928	FOIL	0.9352087956212928	3_1	31	focista	rugalmas		new	1	744	7	3	1	2314	8	3	1	1.85	4.0	3.7	4.0	0.0
508.3101495299852	1.4792472297194763	DISTANT	1.4792472297194763	3_1	97	világítás	ünnepélyes		old	0	1393	9	4	5	3199	10	4	5	2.35	5.9	6.1	5.75	0.624678135
516.3105281128519	1.1832031132871634	CLOSE	1.1832031132871634	3_1	62	nagymama	népszerű		new	1	1874	8	3	1	16499	8	3	3	2.15	5.6	5.6	5.9	0.8184521790000001
524.3268835073904	1.198533157890779	TARGET	1.198533157890779	3_1	23	egyenruha	rendőri		old	1	1598	9	4	1	6998	7	3	1	3.4	6.75	6.65	6.9	1.0
534.3273338109575	0.9342887214297662	DISTANT	0.9342887214297662	3_1	98	zarándok	püspöki		new	1	1047	8	3	2	1773	7	3	6	1.9	4.4	4.0	4.2	0.736171305
540.3436192778099	1.1019023148619451	TARGET	1.1019023148619451	3_1	24	étterem	elegáns		old	1	4657	7	3	4	3281	7	3	1	2.55	6.1	6.75	6.9	1.0
548.3439676355192	0.9337282753476756	FOIL	0.9337282753476756	3_1	32	főhadnagy	harcias		new	1	1176	9	3	1	437	7	3	1	3.25	6.0	6.0	5.75	0.0
554.3432619550076	1.3096459481748752	FOIL	1.3096459481748752	3_1	33	földrengés	sorozatos		new	1	4360	10	3	5	1199	9	4	5	5.8	6.1	5.0	6.05	0.0
560.3595515201814	1.0692540252639446	FOIL	1.0692540252639446	3_1	34	forgatás	tökéletes		new	1	2380	8	3	5	5587	9	4	4	1.6	4.35	3.65	5.3	0.0
564.3597034143895	1.173242900353216	TARGET	1.173242900353216	3_1	25	fejedelem	történelmi		old	1	903	9	4	3	14910	10	4	7	1.85	5.25	5.15	6.2	1.0
572.360068677699	1.1252883876732085	FOIL	1.1252883876732085	3_1	35	frontember	lendületes		new	1	588	10	3	0	483	10	4	8	1.6	4.6	5.6	5.6	0.0
578.3633417033125	0.9057259505716502	FOIL	0.9057259505716502	3_1	36	fürdőszoba	keskeny		new	1	729	10	4	1	762	7	2	1	2.45	6.4	6.6	6.35	0.0
586.376707112875	1.1566149671343735	CLOSE	1.1566149671343735	3_1	38	kerékpár	intelligens		new	1	3466	8	3	3	2053	11	4	1	1.9	3.15	2.8	3.4	0.787231982
594.3760713600495	1.3003622151736636	FOIL	1.3003622151736636	3_1	37	gombnyomás	fölösleges		new	1	1163	10	3	1	1092	10	4	7	2.05	4.4	4.55	6.35	0.0
598.379254222491	1.0890456100169104	DISTANT	1.0890456100169104	3_1	99	zeneszerző	rendkívüli		new	1	2295	10	4	1	13622	10	4	2	3.3	5.4	4.8	6.05	0.714982808
