onset	duration	trial_type	response_time	stim_list	itemno	noun	adjective	order	response	correctness	noun_freq	noun_char	noun_syll	noun_phon	adj_freq	adj_char	adj_syll	adj_phon	arousal	concreteness	imageability	meaningfulness	cosine
24.050174525546023	1.577110270893172	DISTANT	1.577110270893172	6_2	88	törmelék	életveszélyes		old	0	730	8	3	1	3907	13	5	3	4.75	5.8	6.2	6.4	0.657350659
34.04968246775752	1.3211933464372123	FOIL	1.3211933464372123	6_2	101	tartozás	nagymértékű		new	1	5559	8	3	4	437	11	4	1	5.25	5.1	4.8	6.65	0.0
42.05010715896788	1.232845536120294	DISTANT	1.232845536120294	6_2	89	tudomány	genetikai		new	1	3986	8	3	5	1398	9	5	2	2.4	4.8	2.6	5.45	0.662602782
46.05030977099887	1.4569956606210326	CLOSE	1.4569956606210326	6_2	1	akadály	reménytelen		old	0	6030	7	3	2	1273	11	4	4	4.8	3.9	2.9	4.5	0.8418771620000001
54.06670187829877	1.2804286256214257	CLOSE	1.2804286256214257	6_2	2	albérlet	siralmas		new	1	547	8	3	1	402	8	3	5	5.05	5.45	6.05	6.0	0.7793105840000001
60.06700080148221	1.1683444701629924	TARGET	1.1683444701629924	6_2	63	napsütés	felhőtlen		old	1	3340	8	3	2	612	9	3	1	3.0	6.1	6.45	6.6	0.824103177
66.06634224834852	1.0241128807720088	TARGET	1.0241128807720088	6_2	64	novella	tanulságos		old	1	925	7	3	1	805	10	4	6	2.45	5.4	3.05	6.5	0.783685148
74.08272667124766	1.1679377092259529	FOIL	1.1679377092259529	6_2	102	tehetség	példaértékű		new	1	4105	8	3	4	885	11	5	3	3.05	4.05	3.8	6.1	0.0
82.08313266374898	1.1757606852224851	DISTANT	1.1757606852224851	6_2	90	tűzijáték	verhetetlen		new	1	1585	9	4	1	357	11	4	2	2.4	3.2	4.55	3.15	0.664982438
90.08653787781805	1.2762677788232395	FOIL	1.2762677788232395	6_2	103	testmozgás	komplex		new	1	624	10	3	3	2818	7	2	2	2.15	5.2	5.7	6.05	0.0
100.09904372756864	1.191089783769712	TARGET	1.191089783769712	6_2	65	olimpikon	legendás		old	1	644	9	4	2	3949	8	3	5	2.15	5.8	5.5	6.6	0.8306809070000001
108.09946227125693	0.95106061378101	TARGET	0.95106061378101	6_2	66	oroszlán	nyugodt		old	1	1351	8	3	3	2967	7	2	2	2.1	5.9	6.5	6.35	0.851599276
118.11594531063383	1.462498459917697	FOIL	1.462498459917697	6_2	104	testrész	előnytelen		new	1	636	8	2	2	473	10	4	1	4.75	4.15	5.1	5.95	0.0
122.11615227715812	1.9503631263505667	DISTANT	1.9503631263505667	6_2	91	újságcikk	igazságtalan		new	1	503	9	3	0	1736	12	5	2	5.75	5.35	4.5	5.75	0.626544654
130.11957260388226	1.3708881092352383	CLOSE	1.3708881092352383	6_2	3	alkatrész	technikai		new	1	2625	9	3	2	7859	9	4	3	2.15	4.85	4.45	5.45	0.8308419585
136.13286251864338	1.4457549193612067	FOIL	1.4457549193612067	6_2	105	tiltakozás	egyhangú		new	1	5386	10	4	4	892	8	3	2	4.2	5.3	4.75	6.55	0.0
140.13308639085153	1.253716112110851	CLOSE	1.253716112110851	6_2	4	alkohol	biztonságos		new	1	3138	7	3	2	8412	11	4	6	3.5	2.55	2.7	3.1	0.75390619
150.13657254727514	0.978333576247678	FOIL	0.978333576247678	6_2	106	tinédzser	kíváncsi		new	1	795	9	3	2	5894	8	3	2	2.1	5.25	5.55	6.8	0.0
154.14877102099854	1.3490528848160466	DISTANT	1.3490528848160466	6_2	92	útlezárás	gyorsforgalmi		new	1	1291	9	4	3	882	13	4	3	2.8	5.9	5.45	6.2	0.620973349
164.1492784475886	1.301262828787003	CLOSE	1.301262828787003	6_2	5	állatkert	különleges		new	1	2056	9	3	3	12581	10	4	1	2.5	4.8	5.2	5.4	0.8002586359999999
168.14948541411286	1.2771350915063522	TARGET	1.2771350915063522	6_2	67	osztályzat	közepes		old	1	1028	10	3	3	4363	7	3	8	4.55	6.45	6.4	6.95	0.816440403
180.1660949899488	1.3804088254837552	CLOSE	1.3804088254837552	6_2	6	áruházlánc	nyereséges		old	0	935	10	4	2	888	10	4	8	1.75	5.95	4.4	6.5	0.9131852979999999
188.16550072963585	1.324544001265167	DISTANT	1.324544001265167	6_2	93	útmutatás	lelkiismereti		old	0	703	9	4	2	476	13	6	6	3.5	3.7	2.5	5.05	0.6710424423
194.18280113309083	1.2919137308199424	DISTANT	1.2919137308199424	6_2	94	vacsora	ügyészségi		new	1	2517	7	3	1	1538	10	4	4	2.2	4.95	4.9	4.5	0.6062234639999999
202.1822066166278	1.260015015319368	FOIL	1.260015015319368	6_2	107	titkárság	egyszemélyes		new	1	1040	9	3	3	628	12	4	1	1.5	4.65	5.45	5.4	0.0
210.1856266872055	1.0084379841973714	TARGET	1.0084379841973714	6_2	68	ösztöndíj	tanulmányi		old	1	2344	9	3	1	1823	10	4	8	3.6	6.65	4.5	6.8	0.819112897
214.19881568017445	1.4510461414974998	FOIL	1.4510461414974998	6_2	108	üdvözlet	kölcsönös		new	1	726	8	3	1	2208	9	3	4	2.65	5.8	5.3	6.5	0.0
224.1993374509766	1.2910617869347334	FOIL	1.2910617869347334	6_2	109	ügyintézés	zökkenőmentes		new	1	1849	10	4	3	887	13	5	1	1.9	5.55	4.55	6.5	0.0
232.1987429345136	1.2672614051261917	TARGET	1.2672614051261917	6_2	69	pénztárca	ismeretlen		new	0	1902	9	3	3	17883	10	4	7	3.55	4.9	4.9	6.15	0.799133718
242.1992501049572	1.371085854476405	FOIL	1.371085854476405	6_2	110	utasítás	elnökségi		new	1	5327	8	4	4	4277	9	4	8	2.7	5.0	2.7	5.85	0.0
248.19855415440543	1.42706210250617	TARGET	1.42706210250617	6_2	70	pisztoly	törvénytelen		old	1	1679	8	2	3	1475	12	4	3	4.75	4.9	4.9	5.3	0.8161163929999999
258.2150517941409	1.4585842823798885	TARGET	1.4585842823798885	6_2	71	professzor	közgazdasági		new	0	6091	10	3	5	1411	12	5	4	1.9	6.5	5.5	6.65	0.774288118
268.21556921044976	1.8423698896513088	TARGET	1.8423698896513088	6_2	72	rémálom	szomorú		new	0	769	7	3	1	3745	7	3	3	5.8	4.8	4.45	5.5	0.833719671
272.23176280406915	1.2986478272505335	CLOSE	1.2986478272505335	6_2	7	ásványvíz	színvonalas		old	0	963	9	3	1	1782	11	4	5	1.5	3.65	3.15	3.4	0.7986723179999999
284.2313711557836	1.4257526806395615	FOIL	1.4257526806395615	6_2	111	útvonal	ajánlatos		new	1	5624	7	3	3	584	9	4	5	1.6	4.8	4.55	5.65	0.0
290.2356936311444	1.3904548985883594	TARGET	1.3904548985883594	6_2	73	repülőjegy	érvényes		old	1	590	10	4	0	10878	8	3	6	2.8	6.75	6.4	6.9	0.8210387229999999
302.2482845215927	1.2650293428851	DISTANT	1.2650293428851	6_2	95	végállomás	belvárosi		new	1	893	10	4	4	2263	9	4	7	2.1	5.7	5.7	6.1	0.709046066
306.24849763563907	1.2489356464757293	CLOSE	1.2489356464757293	6_2	8	aszfalt	szabályos		old	0	977	7	2	4	978	9	3	5	1.1	5.1	5.6	4.75	0.777173936
316.264989640149	1.5123528021067614	FOIL	1.5123528021067614	6_2	112	üzemanyag	kártékony		new	1	3744	9	4	4	6706	9	3	1	3.75	5.1	4.25	5.7	0.0
322.2652990653478	1.3765971066168277	FOIL	1.3765971066168277	6_2	88	pszichiáter	hűséges		new	1	814	11	4	4	1248	7	3	2	2.55	4.9	3.05	5.05	0.0
330.2687050478562	1.3169331147182677	CLOSE	1.3169331147182677	6_2	9	baktérium	létfontosságú		new	1	1448	9	4	1	894	13	5	3	2.3	4.05	2.95	4.8	0.750643611
336.2820054646327	1.1197319271232118	FOIL	1.1197319271232118	6_2	89	publicista	hiteles		new	1	1111	10	4	1	4985	7	3	8	1.7	4.2	3.1	5.35	0.0
344.2814158149595	1.0717149251322553	FOIL	1.0717149251322553	6_2	90	rokonság	tipikus		new	1	777	8	3	3	1673	7	3	3	2.95	4.25	3.65	3.5	0.0
350.28471985108627	1.2282515452679943	TARGET	1.2282515452679943	6_2	74	sütemény	születésnapi		old	1	1032	8	3	3	731	12	5	2	2.65	6.75	6.7	6.6	0.8020977970000001
354.31492441239243	1.2464282265464135	CLOSE	1.2464282265464135	6_2	10	barátnő	tizenéves		new	1	3479	7	3	1	940	9	4	2	3.85	5.45	5.9	6.2	0.8318079709999999
360.3152381920845	1.1904089458694216	FOIL	1.1904089458694216	6_2	91	rosszullét	klinikai		new	1	742	10	3	1	1131	8	4	2	5.9	5.0	4.25	4.1	0.0
368.31464444406447	1.5104025012187776	CLOSE	1.5104025012187776	6_2	11	barlang	elhagyatott		new	1	1015	7	2	2	307	11	4	2	3.35	6.25	6.6	6.15	0.803201675
374.3309494614914	1.2537542779682551	FOIL	1.2537542779682551	6_2	92	sorrend	javítási		new	1	3666	7	2	5	518	8	4	4	1.75	4.75	3.65	6.15	0.0
380.3312427494493	1.4536977720126742	CLOSE	1.4536977720126742	6_2	12	benzinkút	délutáni		new	1	1490	9	3	1	6707	8	4	5	1.6	2.65	3.5	2.7	0.792105377
390.3347458115532	1.3702677219553152	TARGET	1.3702677219553152	6_2	75	szabadidő	kellemes		old	1	1588	9	4	1	5875	8	3	8	3.6	4.9	5.65	6.15	0.817380428
396.34806492703865	1.5090331410283395	TARGET	1.5090331410283395	6_2	26	fejfájás	kellemetlen		old	1	1351	8	3	4	3486	11	4	1	5.85	5.5	5.25	6.7	0.629661381
404.3474576032422	1.4050649933815291	TARGET	1.4050649933815291	6_2	27	folyadék	elegendő		new	0	1438	8	3	3	9296	8	4	1	2.65	4.85	5.45	6.5	0.676598668
408.3476589345373	1.7250416430506448	DISTANT	1.7250416430506448	6_2	96	ventilátor	nagyobbik		new	1	1165	10	4	3	1603	9	3	1	1.75	5.9	6.55	6.3	0.7033834459999999
418.3641709184885	1.1724430733193003	TARGET	1.1724430733193003	6_2	28	gorilla	érzékeny		old	1	659	7	3	2	3895	8	3	3	3.1	4.0	4.3	4.9	0.626140475
430.3677769515634	1.544897263403982	FOIL	1.544897263403982	6_2	93	sorsolás	helytelen		new	1	1643	8	3	4	1039	9	3	3	4.05	4.6	3.0	5.65	0.0
436.38108044210094	1.1079125504948024	DISTANT	1.1079125504948024	6_2	97	világítás	ünnepélyes		new	1	1393	9	4	5	3199	10	4	5	2.35	5.9	6.1	5.75	0.624678135
444.3805117964512	1.283814884838648	FOIL	1.283814884838648	6_2	94	szállítás	időigényes		new	1	4813	9	3	5	395	10	5	1	3.15	5.6	4.15	5.9	0.0
454.3810074402936	1.259726338001201	FOIL	1.259726338001201	6_2	95	szekrény	kaotikus		new	1	1129	8	2	4	699	8	4	1	2.75	4.25	5.85	5.1	0.0
460.381309949531	1.0917074302778929	TARGET	1.0917074302778929	6_2	29	hangszer	autentikus		old	1	1828	8	2	3	526	10	5	1	2.0	4.6	3.7	4.7	0.6304627660000001
466.3806058022856	1.1076476948219351	DISTANT	1.1076476948219351	6_2	98	zarándok	püspöki		new	1	1047	8	3	2	1773	7	3	6	1.9	4.4	4.0	4.2	0.736171305
476.397123421466	1.2112554440791428	FOIL	1.2112554440791428	6_2	96	szenzor	mágneses		new	1	959	7	2	3	692	8	3	6	1.55	5.1	3.95	5.4	0.0
484.397545807351	1.618778933367139	DISTANT	1.618778933367139	6_2	99	zeneszerző	rendkívüli		old	0	2295	10	4	1	13622	10	4	2	3.3	5.4	4.8	6.05	0.714982808
492.4009251506068	1.455336854665802	FOIL	1.455336854665802	6_2	97	szerencse	viszonylagos		new	1	5746	9	3	1	698	12	4	3	3.2	3.45	2.45	3.85	0.0
502.4144389375761	1.1383599388609582	TARGET	1.1383599388609582	6_2	30	háziorvos	elégedetlen		new	0	2011	9	4	4	2000	11	5	3	4.1	5.6	5.2	5.6	0.6547772288
512.4179501963736	1.5266573138942476	TARGET	1.5266573138942476	6_2	31	helyezés	végleges		old	1	5834	8	3	4	7802	8	3	3	2.95	4.45	3.65	5.2	0.617949784
518.4302462619889	1.2817293385014636	DISTANT	1.2817293385014636	6_2	100	zöldség	korlátlan		old	0	2637	7	2	3	1924	9	3	2	2.05	3.9	4.75	3.95	0.7183503509999999
528.4307518955502	0.9934582697314908	TARGET	0.9934582697314908	6_2	32	horgász	tradicionális		old	1	707	7	2	2	850	13	6	1	2.1	4.65	5.0	4.65	0.6454380751
534.4470523023374	1.2090267117455369	FOIL	1.2090267117455369	6_2	98	szivárgás	fokozatos		new	1	520	9	3	1	1177	9	4	7	4.05	5.25	4.35	6.25	0.0
544.4465635744564	1.1050516481373052	TARGET	1.1050516481373052	6_2	33	iránytű	hasznos		old	1	794	7	3	2	9089	7	2	7	1.75	5.45	6.15	6.3	0.6793020959999999
554.4470666465495	1.2251798341858375	TARGET	1.2251798341858375	6_2	34	kánikula	tavaszi		old	1	1200	8	4	1	5301	7	3	7	4.05	5.35	5.25	5.1	0.632834494
566.4466747421175	1.3047868949215626	TARGET	1.3047868949215626	6_2	35	kapitány	rutinos		new	0	6280	8	3	5	669	7	3	6	1.95	6.0	5.15	6.1	0.616324306
574.4630435400686	1.1684543570918322	FOIL	1.1684543570918322	6_2	99	szörnyeteg	láthatatlan		old	0	531	10	3	0	1239	11	4	4	4.55	3.3	4.05	5.35	0.0
582.4634917967742	1.3523804864380509	FOIL	1.3523804864380509	6_2	100	táplálék	elégséges		new	1	945	8	3	3	1780	9	4	5	3.3	4.95	4.65	6.2	0.0
592.4669933219993	1.1247357526735868	TARGET	1.1247357526735868	6_2	36	kastély	csodálatos		old	1	2771	7	2	4	3144	10	4	8	2.85	6.0	6.75	6.35	0.7096855040000001
598.4802991178549	1.271707599331421	TARGET	1.271707599331421	6_2	37	képregény	izgalmas		old	1	1156	9	3	5	6482	8	3	7	3.45	6.15	5.8	6.7	0.673104167
