onset	duration	trial_type	response_time	stim_list	itemno	noun	adjective	jitter	response	counterbalance	noun_freq	noun_char	noun_syll	noun_phon	adj_freq	adj_char	adj_syll	adj_phon	arousal	concreteness	imageability	meaningfulness	cosine
28.066336699339445	2.0	BASELINE	1.4344851452042349	StimuliTable-5801-Mapping-Run2.xlsx	10	barátnő	középkorú	10	4	1	3479	7	3	1	1253	9	4	8	1.95	5.9	5.5	6.1	1.0
38.0828291739017	2.0	BASELINE	1.698149831587216	StimuliTable-5801-Mapping-Run2.xlsx	17	csillagász	figyelmes	8	2	1	606	10	3	4	1273	9	3	8	1.9	4.4	4.85	5.8	1.0
50.086406765534775	2.0	CLOSE	1.5422959854477083	StimuliTable-5801-Mapping-Run2.xlsx	66	oroszlán	csendes	10	2	1	1351	8	3	3	2305	7	2	7	2.15	5.45	5.7	6.3	0.851599276
62.082974920995184	2.0	DISTANT	1.514147841851809	StimuliTable-5801-Mapping-Run2.xlsx	78	szemüveg	elsődleges	10	2	1	1594	8	3	4	6398	10	4	1	2.3	4.25	3.75	3.75	0.657139182
74.08254664482956	2.0	DISTANT	1.450124141163542	StimuliTable-5801-Mapping-Run2.xlsx	45	kolostor	puritán	10	2	1	1099	8	3	4	301	7	3	1	3.35	5.3	4.6	5.05	0.734071612
84.08302845551225	2.0	BASELINE	1.305882675384055	StimuliTable-5801-Mapping-Run2.xlsx	85	távirat	udvarias	8	3	1	635	7	3	2	446	8	4	1	2.1	4.8	4.45	5.15	1.0
96.08262195176212	2.0	BASELINE	1.4819116075959755	StimuliTable-5801-Mapping-Run2.xlsx	53	mellény	sportos	10	4	1	909	7	2	5	700	7	2	7	1.45	5.9	6.0	6.0	1.0
106.0831024817162	2.0	DISTANT	1.545596939366078	StimuliTable-5801-Mapping-Run2.xlsx	43	kolbász	szezonális	8	2	1	867	7	2	2	973	10	4	1	1.6	3.9	3.95	3.15	0.605840862
118.08267574243656	2.0	CLOSE	1.7701158522831977	StimuliTable-5801-Mapping-Run2.xlsx	1	akadály	reménytelen	10	1	1	6030	7	3	2	1273	11	4	4	4.8	3.9	2.9	4.5	0.8418771620000001
128.083151405619	2.0	DISTANT	1.857578451759764	StimuliTable-5801-Mapping-Run2.xlsx	68	ösztöndíj	partnerségi	8	4	1	2344	9	3	1	465	11	4	3	2.05	4.7	2.1	4.3	0.680144787
138.09864337377076	2.0	CLOSE	1.5134728970588185	StimuliTable-5801-Mapping-Run2.xlsx	81	szőnyeg	mindennapi	8	2	1	1303	7	2	1	5073	10	4	3	1.35	3.9	5.0	4.05	0.75152117
148.10311004827963	2.0	BASELINE	1.7095905941096134	StimuliTable-5801-Mapping-Run2.xlsx	65	olimpikon	legendás	8	4	1	644	9	4	2	3949	8	3	5	2.15	5.8	5.5	6.6	1.0
160.11568886760506	2.0	DISTANT	1.704642365060863	StimuliTable-5801-Mapping-Run2.xlsx	52	matrica	kedvezményes	10	3	1	1479	7	3	2	3115	12	4	6	1.9	5.2	5.8	6.1	0.701929092
168.1160787218687	2.0	CLOSE	1.448237625649199	StimuliTable-5801-Mapping-Run2.xlsx	40	kesztyű	divatos	6	4	1	891	7	2	1	1703	7	3	3	1.95	6.05	6.2	6.75	0.753719985
176.13246002905362	2.0	CLOSE	1.6958711564948317	StimuliTable-5801-Mapping-Run2.xlsx	87	tévéműsor	hihetetlen	6	2	1	648	9	4	1	3434	10	4	2	3.2	3.95	4.3	5.2	0.7619771956999999
184.1318496330496	2.0	DISTANT	1.58370839516283	StimuliTable-5801-Mapping-Run2.xlsx	39	készpénz	méltánytalan	6	2	1	3600	8	2	3	351	12	4	1	4.0	3.55	2.9	2.5	0.6948193309999999
196.1484379062313	2.0	BASELINE	1.5270906446967274	StimuliTable-5801-Mapping-Run2.xlsx	35	kapitány	rutinos	10	4	1	6280	8	3	5	669	7	3	6	1.95	6.0	5.15	6.1	1.0
206.14891971691395	2.0	BASELINE	1.0950975442538038	StimuliTable-5801-Mapping-Run2.xlsx	15	csecsemő	egészséges	8	4	1	2039	8	3	2	7076	10	4	8	2.6	6.5	6.55	6.6	1.0
214.14830650330987	2.0	DISTANT	1.3914679805893684	StimuliTable-5801-Mapping-Run2.xlsx	80	színdarab	társulati	6	4	1	571	9	3	1	342	9	4	7	2.45	5.8	5.8	5.1	0.6175254579999999
222.14868995393044	2.0	CLOSE	1.4392722583870636	StimuliTable-5801-Mapping-Run2.xlsx	79	szerszám	alattomos	6	2	1	812	8	2	4	304	9	4	1	3.2	2.5	2.4	2.45	0.781269133
230.15106519608528	2.0	DISTANT	1.596819998245337	StimuliTable-5801-Mapping-Run2.xlsx	4	alkohol	szabványos	6	1	1	3138	7	3	2	1426	10	3	2	1.9	2.9	3.45	2.95	0.640375018
242.16465348692145	2.0	DISTANT	1.4945867378264666	StimuliTable-5801-Mapping-Run2.xlsx	14	boríték	lakossági	10	1	1	1364	7	3	3	6638	9	4	7	1.5	3.15	3.85	3.5	0.602748156
250.1680384567444	2.0	BASELINE	1.5149954290682217	StimuliTable-5801-Mapping-Run2.xlsx	92	útlezárás	helyszíni	6	4	1	1291	9	4	3	4087	9	3	7	3.75	6.6	6.45	6.5	1.0
260.197521633454	2.0	CLOSE	1.589489354955731	StimuliTable-5801-Mapping-Run2.xlsx	61	művészet	látványos	8	3	1	6299	8	3	1	6475	9	3	4	3.7	4.15	5.45	5.65	0.801142275
270.2020059820352	2.0	DISTANT	1.5617210759228328	StimuliTable-5801-Mapping-Run2.xlsx	88	törmelék	életveszélyes	8	1	1	730	8	3	1	3907	13	5	3	4.75	5.8	6.2	6.4	0.657350659
280.2144746585691	2.0	CLOSE	1.8288109470740888	StimuliTable-5801-Mapping-Run2.xlsx	86	telefonszám	háztartási	8	2	1	4732	11	4	2	1415	10	4	4	2.1	4.3	3.4	4.5	0.7732623820000001
290.22196846688166	2.0	BASELINE	1.436883696645964	StimuliTable-5801-Mapping-Run2.xlsx	7	ásványvíz	minőségi	8	4	1	963	9	3	1	4832	8	4	2	1.85	6.05	5.25	6.4	1.0
298.2503432997182	2.0	BASELINE	1.272355977416737	StimuliTable-5801-Mapping-Run2.xlsx	67	osztályzat	közepes	6	4	1	1028	10	3	3	4363	7	3	8	4.55	6.45	6.4	6.95	1.0
308.26782142420416	2.0	DISTANT	1.5588806725863833	StimuliTable-5801-Mapping-Run2.xlsx	2	albérlet	hátrányos	8	4	1	547	8	3	1	5583	9	3	6	4.3	4.4	4.3	4.05	0.60664767
320.28040357344435	2.0	CLOSE	1.5859668347256957	StimuliTable-5801-Mapping-Run2.xlsx	18	csomagolás	tetszetős	10	1	1	1577	10	4	4	725	9	3	1	2.1	5.45	6.35	6.25	0.890869737
332.2839921793493	2.0	CLOSE	1.5984055421868106	StimuliTable-5801-Mapping-Run2.xlsx	100	zöldség	gyakori	10	1	1	2637	7	2	3	6043	7	3	1	1.45	4.1	3.9	5.0	0.840808868
344.3145714049315	2.0	DISTANT	1.384575090880389	StimuliTable-5801-Mapping-Run2.xlsx	46	költészet	farsangi	10	4	1	1207	9	3	4	425	8	3	2	2.1	3.05	2.5	4.1	0.605011106
352.3179458727536	2.0	CLOSE	1.4130042266624514	StimuliTable-5801-Mapping-Run2.xlsx	51	magazin	kutatási	6	4	1	7307	7	3	2	3464	8	4	6	1.7	4.85	4.8	5.1	0.882873833
364.330521874479	2.0	CLOSE	1.3436465410195524	StimuliTable-5801-Mapping-Run2.xlsx	52	matrica	ingyenes	10	4	1	1479	7	3	2	13952	8	3	1	2.65	6.2	4.8	6.5	0.863539815
376.3300946228992	2.0	BASELINE	1.3357416183280293	StimuliTable-5801-Mapping-Run2.xlsx	89	tudomány	mérnöki	10	4	1	3986	8	3	5	877	7	3	6	1.7	4.75	3.4	6.0	1.0
384.3304870386201	2.0	DISTANT	1.4396649302507285	StimuliTable-5801-Mapping-Run2.xlsx	91	újságcikk	igazságtalan	6	3	1	503	9	3	0	1736	12	5	2	5.75	5.35	4.5	5.75	0.626544654
396.35006504828925	2.0	BASELINE	1.683587929670466	StimuliTable-5801-Mapping-Run2.xlsx	96	ventilátor	masszív	10	1	1	1165	10	4	3	982	7	2	2	1.6	4.5	5.6	5.5	1.0
408.3666766307433	2.0	CLOSE	1.5789850623259554	StimuliTable-5801-Mapping-Run2.xlsx	16	csengőhang	változatos	10	4	1	2279	10	3	1	2172	10	4	6	2.55	4.0	4.4	5.35	0.843068182
416.38005257654	2.0	DISTANT	1.909883471482317	StimuliTable-5801-Mapping-Run2.xlsx	92	útlezárás	gyorsforgalmi	6	4	1	1291	9	4	3	882	13	4	3	2.8	5.9	5.45	6.2	0.620973349
424.3804252690024	2.0	BASELINE	1.4216709276661277	StimuliTable-5801-Mapping-Run2.xlsx	80	színdarab	humoros	6	4	1	571	9	3	1	799	7	3	7	2.85	5.95	5.95	6.8	1.0
434.3798912045313	2.0	CLOSE	1.6138478180073434	StimuliTable-5801-Mapping-Run2.xlsx	15	csecsemő	normális	8	2	1	2039	8	3	2	4470	8	3	4	2.95	4.65	4.75	4.45	0.7993261220000001
444.3793763510039	2.0	DISTANT	1.5899102028924972	StimuliTable-5801-Mapping-Run2.xlsx	61	művészet	strukturális	8	1	1	6299	8	3	1	2005	12	4	2	2.05	3.3	3.25	3.8	0.65917778
452.3837587534654	2.0	DISTANT	1.7783824531798018	StimuliTable-5801-Mapping-Run2.xlsx	12	benzinkút	csöndes	6	3	1	1490	9	3	1	328	7	2	6	3.0	5.35	5.6	6.25	0.6801339390000001
462.3962581675296	2.0	BASELINE	1.757193028839538	StimuliTable-5801-Mapping-Run2.xlsx	70	pisztoly	törvénytelen	8	4	1	1679	8	2	3	1475	12	4	3	4.75	4.9	4.9	5.3	1.0
470.3996300738945	2.0	CLOSE	1.737549445781042	StimuliTable-5801-Mapping-Run2.xlsx	19	diáklány	védtelen	6	2	1	819	8	3	4	650	8	3	5	4.7	5.4	6.25	6.05	0.762401283
480.4131082219537	2.0	DISTANT	1.668622341618175	StimuliTable-5801-Mapping-Run2.xlsx	90	tűzijáték	verhetetlen	8	2	1	1585	9	4	1	357	11	4	2	2.4	3.2	4.55	3.15	0.664982438
488.4125073033647	2.0	BASELINE	1.532534516314627	StimuliTable-5801-Mapping-Run2.xlsx	78	szemüveg	kényelmes	6	4	1	1594	8	3	4	3437	9	3	8	2.15	6.1	6.05	6.7	1.0
496.42988578704535	2.0	BASELINE	1.4598991860402748	StimuliTable-5801-Mapping-Run2.xlsx	68	ösztöndíj	tanulmányi	6	4	1	2344	9	3	1	1823	10	4	8	3.6	6.65	4.5	6.8	1.0
508.4294605846371	2.0	CLOSE	1.531855217035627	StimuliTable-5801-Mapping-Run2.xlsx	63	napsütés	zavartalan	10	2	1	3340	8	3	2	1197	10	4	1	2.75	5.95	6.1	5.75	0.824103177
516.4458467585791	2.0	BASELINE	1.1552096388768405	StimuliTable-5801-Mapping-Run2.xlsx	86	telefonszám	otthoni	6	4	1	4732	11	4	2	4288	7	3	8	1.4	6.5	4.3	6.65	1.0
524.4462409673288	2.0	CLOSE	1.6351558379537892	StimuliTable-5801-Mapping-Run2.xlsx	65	olimpikon	világhírű	6	3	1	644	9	4	2	2877	9	4	4	2.25	6.3	5.75	6.9	0.8306809070000001
536.445809361263	2.0	BASELINE	1.4192377964936895	StimuliTable-5801-Mapping-Run2.xlsx	51	magazin	tudományos	10	4	1	7307	7	3	2	11632	10	4	5	1.8	6.3	6.45	6.15	1.0
546.4452855426352	2.0	CLOSE	1.763247808732558	StimuliTable-5801-Mapping-Run2.xlsx	99	zeneszerző	fantasztikus	8	2	1	2295	10	4	1	3000	12	4	2	2.9	5.6	5.2	6.75	0.9369357229999999
556.4627749375504	2.0	DISTANT	1.5307440555625362	StimuliTable-5801-Mapping-Run2.xlsx	10	barátnő	fiatalos	8	4	1	3479	7	3	1	622	8	4	3	1.7	5.85	6.5	6.55	0.690293968
568.4623510158563	2.0	DISTANT	1.6102612612739904	StimuliTable-5801-Mapping-Run2.xlsx	96	ventilátor	nagyobbik	10	2	1	1165	10	4	3	1603	9	3	1	1.75	5.9	6.55	6.3	0.7033834459999999
578.4618425659864	2.0	BASELINE	1.6507838196557714	StimuliTable-5801-Mapping-Run2.xlsx	60	mutatvány	szánalmas	8	2	1	716	9	3	3	685	9	3	4	4.45	4.9	3.5	6.1	1.0
588.4623133623973	2.0	CLOSE	1.6426506708521629	StimuliTable-5801-Mapping-Run2.xlsx	53	mellény	szabadidős	8	3	1	909	7	2	5	608	10	4	1	2.05	4.15	4.65	4.85	0.7459257840000001
600.4619014795753	2.0	DISTANT	1.7466341771068985	StimuliTable-5801-Mapping-Run2.xlsx	38	kerékpár	hardveres	10	1	1	3466	8	3	3	1550	9	3	5	1.65	2.65	1.5	2.4	0.6436905860000001
612.4654649831646	2.0	CLOSE	1.6870197742100572	StimuliTable-5801-Mapping-Run2.xlsx	62	nagymama	népszerű	10	1	1	1874	8	3	1	16499	8	3	3	2.15	5.6	5.6	5.9	0.8184521790000001
622.4779784852726	2.0	BASELINE	1.7940096664387966	StimuliTable-5801-Mapping-Run2.xlsx	54	menetrend	szokásos	8	1	1	4833	9	3	2	8246	8	3	6	1.7	5.4	4.45	6.65	1.0
630.478349128578	2.0	BASELINE	1.3855425544461468	StimuliTable-5801-Mapping-Run2.xlsx	16	csengőhang	többféle	6	4	1	2279	10	3	1	2956	8	3	1	2.25	4.55	3.55	5.8	1.0
638.494736070963	2.0	DISTANT	1.4494778847438283	StimuliTable-5801-Mapping-Run2.xlsx	13	bölcsőde	lokális	6	1	1	1219	8	3	1	578	7	3	3	1.75	4.7	5.35	6.55	0.6315799952000001
646.4951190092834	2.0	CLOSE	1.4649257957789814	StimuliTable-5801-Mapping-Run2.xlsx	2	albérlet	siralmas	6	4	1	547	8	3	1	402	8	3	5	5.05	5.45	6.05	6.0	0.7793105840000001
