onset	duration	trial_type	response_time	stim_list	itemno	noun	adjective	order	response	correctness	noun_freq	noun_char	noun_syll	noun_phon	adj_freq	adj_char	adj_syll	adj_phon	arousal	concreteness	imageability	meaningfulness	cosine
22.089098832406307	1.1376675743667874	TARGET	1.1376675743667874	15_2	38	kerékpár	elektromos		new	0	3466	8	3	3	4185	10	4	2	1.75	6.55	6.7	6.95	1.0
34.10174889274276	1.0210578192236426	FOIL	1.0210578192236426	15_2	51	jutalom	kívánatos		new	1	3275	7	3	1	1846	9	4	2	3.0	4.9	4.2	5.85	0.0
40.116012933358434	1.3990399109825375	DISTANT	1.3990399109825375	15_2	76	szakadék	kedvezőtlen		old	0	1478	8	3	4	3202	11	4	2	3.95	2.85	3.3	2.35	0.659476936
48.11541406240213	1.3990340196105535	TARGET	1.3990340196105535	15_2	39	készpénz	csekély		new	0	3600	8	2	3	3258	7	2	2	4.95	4.5	5.7	6.15	1.0
58.11592609963191	1.0231264598733103	TARGET	1.0231264598733103	15_2	40	kesztyű	férfias		old	1	891	7	2	1	506	7	3	6	1.7	5.45	4.85	5.4	1.0
68.11542917505722	1.38298591730927	DISTANT	1.38298591730927	15_2	77	szélvihar	kíméletlen		new	1	490	9	3	0	564	10	4	2	5.5	5.75	6.05	6.5	0.6293716429999999
72.1156215412193	1.6310501527514134	DISTANT	1.6310501527514134	15_2	78	szemüveg	elsődleges		old	0	1594	8	3	4	6398	10	4	1	2.3	4.25	3.75	3.75	0.657139182
82.13214325874287	1.5263727349265537	FOIL	1.5263727349265537	15_2	52	kertész	szakképzett		new	1	2363	7	2	5	480	11	3	1	1.25	6.2	6.2	6.7	0.0
92.13264709927898	1.4383346059548785	FOIL	1.4383346059548785	15_2	53	kézikönyv	földrajzi		new	1	662	9	3	2	2472	9	3	5	1.8	6.1	6.15	6.2	0.0
102.1491580586444	1.4377211346400145	FOIL	1.4377211346400145	15_2	54	kiképzés	lélektani		new	1	1449	8	3	5	743	9	4	7	4.2	4.4	2.7	4.3	0.0
106.152360404536	1.4741695276134124	CLOSE	1.4741695276134124	15_2	63	napsütés	zavartalan		old	0	3340	8	3	2	1197	10	4	1	2.75	5.95	6.1	5.75	0.824103177
110.16556451016004	1.1487021175380503	TARGET	1.1487021175380503	15_2	41	királynő	szépséges		old	1	2060	8	3	2	414	9	3	8	2.6	5.15	6.55	6.7	1.0
120.18210005960646	1.0843168298888486	TARGET	1.0843168298888486	15_2	42	kirándulás	hétvégi		old	1	1896	10	4	4	4177	7	3	5	2.95	6.05	6.3	6.9	1.0
126.18237464885532	0.9243188995533274	TARGET	0.9243188995533274	15_2	43	kolbász	tonnányi		old	1	867	7	2	2	533	8	3	1	2.6	6.05	5.95	6.15	1.0
138.18199580790315	1.180366458822391	FOIL	1.180366458822391	15_2	55	kitüntetés	jelképes		old	0	4318	10	4	5	1178	8	3	8	3.25	4.95	4.5	6.1	0.0
148.18250016073216	1.356298506179883	FOIL	1.356298506179883	15_2	56	korlátozás	munkahelyi		new	1	7015	10	4	4	1797	10	4	7	4.6	4.8	3.75	5.65	0.0
158.18199836937129	1.388338102355192	FOIL	1.388338102355192	15_2	57	korosztály	szerencsés		new	1	4689	10	3	5	5339	10	3	8	2.75	4.45	3.65	6.0	0.0
164.18530317393743	1.312935945654317	DISTANT	1.312935945654317	15_2	79	szerszám	illegális		new	1	812	8	2	4	5833	9	4	1	3.8	4.1	3.65	5.05	0.606139541
170.198618703369	1.2193829784882837	CLOSE	1.2193829784882837	15_2	64	novella	beszédes		old	0	925	7	3	1	637	8	3	7	3.3	4.4	3.75	4.9	0.783685148
178.21502566717754	1.595041307493375	FOIL	1.595041307493375	15_2	58	korszak	bizonytalan		new	1	5827	7	2	4	5295	11	4	1	5.45	3.85	3.0	5.4	0.0
188.21552207945933	1.4989860433379365	TARGET	1.4989860433379365	15_2	44	kollégium	főiskolai		old	1	3139	9	4	3	1294	9	5	2	2.5	6.6	6.2	6.45	1.0
192.21472059647203	1.0349909183169077	CLOSE	1.0349909183169077	15_2	65	olimpikon	világhírű		old	0	644	9	4	2	2877	9	4	4	2.25	6.3	5.75	6.9	0.8306809070000001
200.23214164502133	1.5863202812106465	FOIL	1.5863202812106465	15_2	59	követelés	eredményes		old	0	5876	9	4	3	5287	10	4	8	3.55	4.65	2.9	6.0	0.0
206.2314300695216	1.4743370475480333	TARGET	1.4743370475480333	15_2	45	kolostor	hajdani		new	0	1099	8	3	4	1367	7	3	7	2.3	4.65	5.65	5.75	1.0
210.23163319384548	1.746051050544338	TARGET	1.746051050544338	15_2	46	költészet	mágikus		old	1	1207	9	3	4	454	7	3	1	2.6	3.0	3.15	3.85	1.0
216.2479430780586	1.7616557629298768	CLOSE	1.7616557629298768	15_2	66	oroszlán	csendes		new	1	1351	8	3	3	2305	7	2	7	2.15	5.45	5.7	6.3	0.851599276
222.2482471241783	1.6016829349682666	DISTANT	1.6016829349682666	15_2	80	színdarab	társulati		new	1	571	9	3	1	342	9	4	7	2.45	5.8	5.8	5.1	0.6175254579999999
228.24855091414796	1.2736958099267213	TARGET	1.2736958099267213	15_2	47	kommentár	terjedelmes		old	1	2449	9	3	2	699	11	4	5	2.2	4.4	4.0	5.3	1.0
234.25185546257129	1.3743327698939538	DISTANT	1.3743327698939538	15_2	81	szőnyeg	templomi		new	1	1303	7	2	1	410	8	3	8	1.9	6.4	6.05	6.5	0.613664091
242.26527498755604	1.6890415067791764	FOIL	1.6890415067791764	15_2	60	közvetítés	globális		new	1	2665	10	4	5	8481	8	3	1	3.05	5.45	5.4	5.75	0.0
254.2678651428687	1.7176425898178422	FOIL	1.7176425898178422	15_2	61	kritika	érthetetlen		old	0	6864	7	3	1	2277	11	4	4	4.55	4.65	3.25	5.85	0.0
262.2812872293216	1.3683768471055373	DISTANT	1.3683768471055373	15_2	82	találmány	kapitalista		new	1	1346	9	3	4	357	11	5	1	3.35	4.65	3.95	5.1	0.6249907020000001
272.2808005506122	1.8563073432378587	TARGET	1.8563073432378587	15_2	48	legénység	katonai		new	0	1179	9	3	4	14642	7	4	3	4.35	6.0	5.9	6.15	1.0
280.2982008512772	1.2476982018270064	TARGET	1.2476982018270064	15_2	49	lépcsőház	emeletes		old	1	634	9	3	1	491	8	4	8	1.65	6.05	6.5	6.1	1.0
288.29761632453665	1.487716357500176	TARGET	1.487716357500176	15_2	50	levéltár	régészeti		old	1	1665	8	3	3	1293	9	4	4	1.85	4.6	5.6	5.75	1.0
296.2979961900746	1.0956774477963336	FOIL	1.0956774477963336	15_2	62	küldemény	dobozos		new	1	1003	9	3	3	970	7	3	7	1.9	5.6	6.75	6.45	0.0
300.29821468320006	1.719668453970371	DISTANT	1.719668453970371	15_2	83	tananyag	akadémiai		new	1	1192	8	3	3	833	9	6	2	3.25	5.3	4.35	6.45	0.6859960559999999
306.2975031077003	1.4077307119623583	FOIL	1.4077307119623583	15_2	38	gyűjtemény	sokszínű		new	1	3860	10	3	1	1038	8	3	1	2.15	4.4	5.1	5.65	0.0
316.298037941986	1.6077192878219648	TARGET	1.6077192878219648	15_2	1	akadály	lehetetlen		new	0	6030	7	3	2	5822	10	4	6	5.4	4.65	3.6	6.3	1.0
326.2975333330105	1.6157400090633018	CLOSE	1.6157400090633018	15_2	67	osztályzat	átlagos		old	0	1028	10	3	3	10804	7	3	7	3.35	5.85	5.35	6.5	0.816440403
336.298040247304	1.7276456302788574	TARGET	1.7276456302788574	15_2	2	albérlet	szegényes		old	1	547	8	3	1	439	9	3	7	4.5	5.55	6.5	6.05	1.0
348.29764859901843	1.143733127937594	FOIL	1.143733127937594	15_2	39	gyulladás	fájdalmas		new	1	756	9	3	3	2001	9	3	6	5.0	5.85	4.6	6.55	0.0
354.3009480245055	1.3963342335191555	CLOSE	1.3963342335191555	15_2	68	ösztöndíj	képzési		old	0	2344	9	3	1	2239	7	3	7	3.6	5.6	4.35	6.55	0.819112897
358.31414598260744	1.1670332552675973	DISTANT	1.1670332552675973	15_2	84	tanfolyam	fizikai		new	1	1871	9	3	2	6220	7	4	2	2.45	4.15	3.9	4.5	0.7106931209999999
366.31355069770507	1.3750650932779536	CLOSE	1.3750650932779536	15_2	69	pénztárca	titokzatos		new	1	1902	9	3	3	1438	10	4	2	2.65	3.3	3.3	3.25	0.799133718
376.3140583804416	1.5510281343849783	TARGET	1.5510281343849783	15_2	3	alkatrész	műszaki		old	1	2625	9	3	2	11955	7	3	1	1.6	5.9	5.6	6.45	1.0
384.3134589971924	1.1670519539766246	TARGET	1.1670519539766246	15_2	4	alkohol	legális		old	1	3138	7	3	2	1848	7	3	3	2.75	5.45	5.2	5.3	1.0
390.3307686219269	2.0	TARGET	0.0	15_2	5	állatkert	egzotikus			0	2056	9	3	3	643	9	4	1	2.95	5.45	5.6	6.45	1.0
398.347184550872	1.213692679812084	CLOSE	1.213692679812084	15_2	70	pisztoly	jogszerűtlen		new	1	1679	8	2	3	607	12	4	1	4.2	3.35	2.85	3.45	0.8161163929999999
408.3466922369371	1.429757534107921	FOIL	1.429757534107921	15_2	40	gyűlölet	mélységes		new	1	2004	8	3	1	415	9	3	6	6.2	5.7	3.2	6.35	0.0
416.3470987417313	1.7016810651002745	FOIL	1.7016810651002745	15_2	41	hadjárat	szerencsétlen		new	1	1413	8	3	4	2074	13	4	3	4.7	5.2	4.25	5.85	0.0
422.3474015071152	1.0777115752425743	TARGET	1.0777115752425743	15_2	6	áruházlánc	veszteséges		old	1	935	10	4	2	1234	11	4	8	2.7	4.85	4.1	5.9	1.0
432.34689869116846	1.3417388722846226	CLOSE	1.3417388722846226	15_2	71	professzor	jogtudományi		new	1	6091	10	3	5	382	12	5	3	1.8	6.2	5.45	6.55	0.774288118
442.3634152857594	1.0450300754600903	TARGET	1.0450300754600903	15_2	7	ásványvíz	minőségi		old	1	963	9	3	1	4832	8	4	2	1.85	6.05	5.25	6.4	1.0
448.36370831757085	1.2611179829582395	TARGET	1.2611179829582395	15_2	8	aszfalt	hibátlan		old	1	977	7	2	4	863	8	3	1	1.95	6.3	6.7	6.65	1.0
456.3631163625723	1.0130627126491163	TARGET	1.0130627126491163	15_2	9	baktérium	növényi		old	1	1448	9	4	1	968	7	3	7	2.25	4.75	2.95	5.85	1.0
460.36331718157817	1.253052436044527	CLOSE	1.253052436044527	15_2	72	rémálom	sajnálatos		old	0	769	7	3	1	2647	10	4	3	5.4	3.75	4.3	4.45	0.833719671
470.3638325487118	1.1407869287322685	FOIL	1.1407869287322685	15_2	42	hátrány	mentális		new	1	7114	7	2	4	861	8	3	3	4.9	3.75	3.25	5.85	0.0
482.38043546474	1.2763720305229072	CLOSE	1.2763720305229072	15_2	73	repülőjegy	hatályos		old	0	590	10	4	0	4539	8	3	2	2.8	3.75	3.4	3.7	0.8210387229999999
492.37994263851215	0.9483882353888476	FOIL	0.9483882353888476	15_2	43	havazás	folyamatos		new	1	3637	7	3	4	10275	10	4	6	3.85	6.45	6.8	6.9	0.0
500.396359848186	1.1957326986375847	FOIL	1.1957326986375847	15_2	44	házastárs	eszméletlen		new	1	909	9	3	3	520	11	4	3	5.8	5.55	5.05	5.4	0.0
508.39677583040975	1.5717665386873705	DISTANT	1.5717665386873705	15_2	85	távirat	formális		old	0	635	7	3	2	897	8	3	2	2.35	4.3	5.15	6.0	0.6985746620000001
516.3961597976231	1.0437083585529765	CLOSE	1.0437083585529765	15_2	74	sütemény	jubileumi		new	1	1032	8	3	3	1377	9	5	4	1.55	4.35	3.15	3.8	0.8020977970000001
524.3965750114039	1.3477032479131594	TARGET	1.3477032479131594	15_2	10	barátnő	középkorú		old	1	3479	7	3	1	1253	9	4	8	1.95	5.9	5.5	6.1	1.0
534.4000685960818	1.6802899990361766	DISTANT	1.6802899990361766	15_2	86	telefonszám	térségbeli		new	1	4732	11	4	2	1020	10	4	1	1.6	5.45	3.15	4.9	0.631895483
540.4133874554209	1.035092352409265	TARGET	1.035092352409265	15_2	11	barlang	lakatlan		old	1	1015	7	2	2	471	8	3	2	2.9	6.2	6.1	6.3	1.0
548.4127931951043	1.251056284905644	FOIL	1.251056284905644	15_2	45	hazugság	kisebbik		new	1	3451	8	3	4	1351	8	3	4	4.65	3.05	2.4	5.7	0.0
554.416098511967	1.0956879498080525	FOIL	1.0956879498080525	15_2	46	hercegnő	szigorú		new	1	1207	8	3	2	8605	7	3	6	2.45	5.35	5.4	6.4	0.0
560.4294025147974	1.298379385520093	FOIL	1.298379385520093	15_2	47	hetilap	közérdekű		new	1	3156	7	3	1	1687	9	4	4	2.55	6.0	6.0	5.75	0.0
564.4296053829748	1.3863693589119066	TARGET	1.3863693589119066	15_2	12	benzinkút	hajnali		old	1	1490	9	3	1	3888	7	3	8	2.85	5.25	6.5	4.8	1.0
572.4299962628211	1.7463924940821016	FOIL	1.7463924940821016	15_2	48	hirdetés	releváns		new	1	4687	8	3	4	763	8	3	1	2.15	5.15	4.55	6.3	0.0
578.4463058908877	1.2657357954522013	FOIL	1.2657357954522013	15_2	49	irodaház	szemközti		new	1	942	8	4	3	638	9	3	4	1.45	6.65	6.3	6.6	0.0
586.4457129113034	1.2657401499454863	CLOSE	1.2657401499454863	15_2	75	szabadidő	örömteli		new	1	1588	9	4	1	1077	8	4	5	3.35	4.4	6.0	6.4	0.817380428
594.4491176130832	1.3183490936135058	FOIL	1.3183490936135058	15_2	50	játszma	belpolitikai		new	1	1655	7	2	1	2408	12	6	2	5.15	3.95	2.85	6.35	0.0
598.4623317084224	2.0	DISTANT	0.0	15_2	87	tévéműsor	paradox			0	648	9	4	1	662	7	3	1	3.3	2.8	2.15	3.7	0.6147992015
