onset	duration	trial_type	response_time	stim_list	itemno	noun	adjective	order	response	correctness	noun_freq	noun_char	noun_syll	noun_phon	adj_freq	adj_char	adj_syll	adj_phon	arousal	concreteness	imageability	meaningfulness	cosine
22.083075543036102	2.0	FILLER	1.7023478149349105	14_2	113	választék	egyforma	1	good		1419	9	3	4	1192	8	3	2	2.25	4.75	4.5	5.15	0.0
30.08350638176489	2.0	FILLER	1.8783057331020243	14_2	114	vallomás	következetes	1	no-good		6889	8	3	5	1340	12	5	3	3.8	3.9	2.75	4.95	0.0
40.10001016901515	2.0	DISTANT	1.2296045120747294	14_2	35	kapitány	rutinos	1	good	1	6280	8	3	5	669	7	3	6	1.95	6.0	5.15	6.1	1.0
46.10031447128858	2.0	REPEAT	1.54939289392496	14_2	18	csomagolás	ízléses	1	good	1	1577	10	4	4	472	7	3	7	1.35	5.8	6.1	6.05	1.0
56.10379960312275	2.0	FILLER	1.7781633923877962	14_2	115	védekezés	célszerű	1	good		5447	9	4	4	2801	8	3	4	3.35	4.45	3.55	5.8	0.0
66.11633081139007	2.0	DISTANT	1.396989969041897	14_2	36	kastély	csodálatos	1	good	0	2771	7	2	4	3144	10	4	8	2.85	6.0	6.75	6.35	1.0
74.11671323839983	2.0	FILLER	1.5729517294093966	14_2	116	védőoltás	hatékony	1	good		1615	9	4	1	12155	8	3	2	3.85	5.3	4.55	6.55	0.0
80.13305872700585	2.0	REPEAT	1.6522816394281108	14_2	19	diáklány	ártatlan	1	good	1	819	8	3	4	2035	8	3	5	2.8	5.3	5.35	6.6	1.0
86.13334433056298	2.0	FILLER	1.7163157499744557	14_2	117	végeredmény	lehetséges	1	good		5372	11	4	4	14891	10	4	4	2.9	4.15	4.25	6.2	0.0
92.13365221887943	2.0	REPEAT	1.0840186751447618	14_2	20	diktátor	kegyetlen	1	good	1	1821	8	3	4	1493	9	3	2	6.0	5.8	6.2	6.7	1.0
100.15005867039145	2.0	FILLER	1.4116528300510254	14_2	118	veszekedés	hétköznapi	1	good		735	10	4	3	2641	10	4	3	5.55	5.05	6.0	6.45	0.0
104.14926154189745	2.0	REPEAT	1.8196402009925805	14_2	21	díszlet	színpadi	1	good	1	1420	7	2	3	1542	8	3	5	2.1	5.9	6.35	6.75	1.0
108.1494751682476	2.0	DISTANT	1.5396782746393	14_2	37	képregény	izgalmas	1	good	1	1156	9	3	5	6482	8	3	7	3.45	6.15	5.8	6.7	1.0
120.1500143570156	2.0	CLOSE	1.5316572972515132	14_2	59	műemlék	természeti	1	good	1	1457	7	3	1	3805	10	4	6	2.45	4.95	5.05	4.45	1.0
126.14938807836734	2.0	CLOSE	1.6116534448083255	14_2	60	mutatvány	szánalmas	1	good	1	716	9	3	3	685	9	3	4	4.45	4.9	3.5	6.1	1.0
136.1528949826752	2.0	REPEAT	0.0	14_2	22	díszterem	patinás	1		1	1123	9	3	1	802	7	3	4	2.3	5.2	5.55	5.05	1.0
140.16605093271937	2.0	FILLER	1.8109673302824376	14_2	119	vészhelyzet	időjárási	1	good		1043	11	3	2	1814	9	5	1	4.75	5.4	5.15	6.0	0.0
148.16649355419213	2.0	CLOSE	1.4429921211849432	14_2	61	művészet	vizuális	1	good	0	6299	8	3	1	1406	8	4	1	2.15	4.8	4.3	5.65	1.0
154.16578351557837	2.0	CLOSE	1.5789665659394814	14_2	62	nagymama	kedvenc	1	good	1	1874	8	3	1	9838	7	2	3	3.25	6.0	5.9	6.8	1.0
162.1832035395346	2.0	FILLER	1.770334268861916	14_2	120	vetélytárs	egyedüli	1	good		2392	10	3	2	2749	8	4	5	3.25	4.7	4.7	5.95	0.0
168.1825032344932	2.0	DISTANT	1.6903122504882049	14_2	38	kerékpár	elektromos	1	good	1	3466	8	3	3	4185	10	4	2	1.75	6.55	6.7	6.95	1.0
174.1827755184204	2.0	FILLER	1.3782789657707326	14_2	121	vetítés	egyszeri	1	good		1678	7	3	4	2982	8	3	3	1.55	5.8	4.2	6.15	0.0
184.19932028914627	2.0	REPEAT	1.385617568375892	14_2	23	egyenruha	rendőri	1	good	1	1598	9	4	1	6998	7	3	1	3.4	6.75	6.65	6.9	1.0
190.19959923288843	2.0	REPEAT	1.2816432732070098	14_2	18	csomagolás	ízléses	2	good	1	1577	10	4	4	472	7	3	7	1.35	5.8	6.1	6.05	1.0
198.19899293368508	2.0	DISTANT	1.4417103631567445	14_2	35	kapitány	tüzérségi	2	good	1	6280	8	3	5	319	9	4	5	2.8	5.9	5.55	6.15	0.616324306
204.1993446230772	2.0	FILLER	1.4736318757059053	14_2	122	vezetőség	tartományi	1	good		3803	9	4	2	2253	10	4	7	2.0	3.7	2.35	3.85	0.0
210.198649184822	2.0	DISTANT	1.569625920819817	14_2	36	kastély	speciális	2	no-good	0	2771	7	2	4	9094	9	4	1	2.5	4.05	4.8	4.3	0.7096855040000001
218.1990436507185	2.0	DISTANT	1.401636726106517	14_2	39	készpénz	csekély	1	good	1	3600	8	2	3	3258	7	2	2	4.95	4.5	5.7	6.15	1.0
222.19924779963912	2.0	CLOSE	1.9216647075809303	14_2	63	napsütés	felhőtlen	1	good	1	3340	8	3	2	612	9	3	1	3.0	6.1	6.45	6.6	1.0
226.19944887478775	2.0	REPEAT	1.5056071790750138	14_2	19	diáklány	ártatlan	2	good	1	819	8	3	4	2035	8	3	5	2.8	5.3	5.35	6.6	1.0
236.24390441321884	2.0	FILLER	1.700376253866125	14_2	123	villany	infravörös	1	good		826	7	2	5	464	10	4	1	1.95	5.75	5.95	4.8	0.0
240.21514272621425	2.0	REPEAT	1.1289365583652398	14_2	20	diktátor	kegyetlen	2	good	1	1821	8	3	4	1493	9	3	2	6.0	5.8	6.2	6.7	1.0
246.21546419030344	2.0	REPEAT	1.5369500562665053	14_2	21	díszlet	színpadi	2	good	1	1420	7	2	3	1542	8	3	5	2.1	5.9	6.35	6.75	1.0
254.2158327853831	2.0	DISTANT	0.0	14_2	37	képregény	lövöldözős	2		1	1156	9	3	5	385	10	4	2	2.75	6.0	6.5	5.85	0.673104167
260.2321503540006	2.0	CLOSE	1.1922995645727497	14_2	60	mutatvány	nevetséges	2	good	1	716	9	3	3	1625	10	4	3	2.6	4.8	5.3	5.75	0.8695170879999999
272.2327835486212	2.0	CLOSE	1.552010969229741	14_2	59	műemlék	őshonos	2	good	1	1457	7	3	1	766	7	3	1	2.2	4.0	3.75	4.0	0.769399345
278.2490514247765	2.0	FILLER	1.407640804463881	14_2	124	zaklatás	pszichés	1	good		1370	8	3	3	534	8	2	5	6.05	5.05	3.1	5.55	0.0
286.2485045515932	2.0	FILLER	1.6555890054587508	14_2	125	zűrzavar	érzelmi	1	good		667	8	3	1	1869	7	3	7	5.7	4.6	3.65	5.8	0.0
290.2486964054697	2.0	CLOSE	1.567634636463481	14_2	62	nagymama	népszerű	2	no-good	1	1874	8	3	1	16499	8	3	3	2.15	5.6	5.6	5.9	0.8184521790000001
296.25200121002854	2.0	FILLER	1.8279959620995212	14_2	76	népcsoport	kétnyelvű	1	no-good		847	10	3	4	1121	9	3	1	1.85	5.55	4.5	6.55	0.0
302.26530188295874	2.0	REPEAT	1.694899581532809	14_2	22	díszterem	patinás	2	good	1	1123	9	3	1	802	7	3	4	2.3	5.2	5.55	5.05	1.0
308.2656069536606	2.0	CLOSE	1.3589808742981404	14_2	61	művészet	látványos	2	good	0	6299	8	3	1	6475	9	3	4	3.7	4.15	5.45	5.65	0.801142275
314.2648774478876	2.0	REPEAT	1.254959448138834	14_2	23	egyenruha	rendőri	2	good	1	1598	9	4	1	6998	7	3	1	3.4	6.75	6.65	6.9	1.0
320.28224598636734	2.0	FILLER	1.4623104482452618	14_2	77	nézőpont	kézenfekvő	1	good		1480	8	3	1	875	10	4	1	2.05	3.9	2.25	4.45	0.0
326.28152365270944	2.0	REPEAT	1.262294208543608	14_2	24	étterem	elegáns	1	good	1	4657	7	3	4	3281	7	3	1	2.55	6.1	6.75	6.9	1.0
332.28183794469805	2.0	DISTANT	0.0	14_2	38	kerékpár	hardveres	2		1	3466	8	3	3	1550	9	3	5	1.65	2.65	1.5	2.4	0.6436905860000001
338.2981283617555	2.0	FILLER	1.4776205919479253	14_2	78	nyereség	pillanatnyi	1	good		4712	8	3	5	1179	11	4	2	3.8	4.45	3.25	6.35	0.0
350.298736710145	2.0	DISTANT	1.653567239671247	14_2	39	készpénz	méltánytalan	2	good	1	3600	8	2	3	351	12	4	1	4.0	3.55	2.9	2.5	0.6948193309999999
358.2981232388265	2.0	CLOSE	1.4376097108324757	14_2	64	novella	tanulságos	1	good	1	925	7	3	1	805	10	4	6	2.45	5.4	3.05	6.5	1.0
368.2986498764221	2.0	CLOSE	1.677620694390498	14_2	63	napsütés	zavartalan	2	good	1	3340	8	3	2	1197	10	4	1	2.75	5.95	6.1	5.75	0.824103177
374.2979577680672	2.0	DISTANT	1.1175907969591208	14_2	40	kesztyű	férfias	1	good	1	891	7	2	1	506	7	3	6	1.7	5.45	4.85	5.4	1.0
380.3152261531941	2.0	REPEAT	0.0	14_2	25	fejedelem	történelmi	1		1	903	9	4	3	14910	10	4	7	1.85	5.25	5.15	6.2	1.0
388.3146669849666	2.0	REPEAT	1.7489075984194642	14_2	76	szakadék	iszonyatos	1	good	0	1478	8	3	4	452	10	4	6	5.1	4.75	5.85	5.65	1.0
398.3151705693599	2.0	REPEAT	1.4689318401360651	14_2	77	szélvihar	hirtelen	1	good	1	490	9	3	0	6756	8	3	4	4.6	6.2	6.2	6.65	1.0
404.3144797417335	2.0	FILLER	1.1329677949252073	14_2	79	olvasmány	irodalmi	1	good		593	9	3	0	4601	8	4	7	2.85	5.4	6.35	6.85	0.0
410.3147794333636	2.0	REPEAT	1.2769319671788253	14_2	78	szemüveg	kényelmes	1	good	0	1594	8	3	4	3437	9	3	8	2.15	6.1	6.05	6.7	1.0
420.3142860948428	2.0	CLOSE	1.4689059693191666	14_2	65	olimpikon	legendás	1	good	1	644	9	4	2	3949	8	3	5	2.15	5.8	5.5	6.6	1.0
424.31450177035	2.0	REPEAT	1.524941131079686	14_2	79	szerszám	trükkös	1	good	1	812	8	2	4	689	7	2	7	1.7	3.15	3.55	4.15	1.0
430.3147976197797	2.0	DISTANT	1.2209554630098864	14_2	41	királynő	szépséges	1	good	1	2060	8	3	2	414	9	3	8	2.6	5.15	6.55	6.7	1.0
438.3141995172628	2.0	REPEAT	1.4209071537479758	14_2	80	színdarab	humoros	1	good	1	571	9	3	1	799	7	3	7	2.85	5.95	5.95	6.8	1.0
442.3144164735131	2.0	DISTANT	1.3329356229078255	14_2	42	kirándulás	hétvégi	1	good	1	1896	10	4	4	4177	7	3	5	2.95	6.05	6.3	6.9	1.0
450.3148270766542	2.0	FILLER	1.300951610552147	14_2	80	operatőr	hivatásos	1	good		1019	8	4	2	3472	9	4	7	1.35	6.55	5.95	6.55	0.0
460.3142896809004	2.0	CLOSE	1.4769384733081097	14_2	66	oroszlán	nyugodt	1	good	1	1351	8	3	3	2967	7	2	2	2.1	5.9	6.5	6.35	1.0
466.3146185732476	2.0	REPEAT	0.0	14_2	81	szőnyeg	használati	1		1	1303	7	2	1	1806	10	4	5	1.9	3.55	4.25	3.8	1.0
474.3140281551314	2.0	FILLER	1.5409623379819095	14_2	81	őrmester	méltatlan	1	good		552	8	3	1	1723	9	3	2	3.5	4.7	3.3	5.3	0.0
482.3314189783705	2.0	FILLER	1.8362297973944808	14_2	82	országrész	középső	1	good		1927	10	3	3	3447	7	3	1	1.4	6.0	5.65	6.75	0.0
488.3307501793606	2.0	REPEAT	1.468231278951862	14_2	82	találmány	forradalmi	1	good	1	1346	9	3	4	2505	10	4	3	2.9	4.5	4.35	6.45	1.0
494.33100658220064	2.0	REPEAT	0.9722109019639902	14_2	24	étterem	elegáns	2	good	1	4657	7	3	4	3281	7	3	1	2.55	6.1	6.75	6.9	1.0
500.34733081063314	2.0	FILLER	1.555547842697706	14_2	83	pályafutás	dicséretes	1	good		3897	10	4	5	469	10	4	8	3.05	4.7	4.6	5.5	0.0
508.347754221104	2.0	CLOSE	1.643595192945213	14_2	67	osztályzat	közepes	1	good	1	1028	10	3	3	4363	7	3	8	4.55	6.45	6.4	6.95	1.0
516.3511233184836	2.0	REPEAT	1.200281095385435	14_2	83	tananyag	iskolai	1	good	1	1192	8	3	3	5542	7	4	3	3.9	5.65	4.85	6.9	1.0
526.380679572525	2.0	CLOSE	1.546236654437962	14_2	64	novella	beszédes	2	no-good	1	925	7	3	1	637	8	3	7	3.3	4.4	3.75	4.9	0.783685148
538.3802766537847	2.0	REPEAT	1.0262524740537629	14_2	25	fejedelem	történelmi	2	good	1	903	9	4	3	14910	10	4	7	1.85	5.25	5.15	6.2	1.0
546.3806829024397	2.0	FILLER	1.650197886119713	14_2	84	parancs	vitathatatlan	1	good		4012	7	2	4	667	13	5	1	4.3	5.7	3.1	6.05	0.0
554.3800835191796	2.0	DISTANT	1.8182324187946504	14_2	40	kesztyű	paraszti	2	good	1	891	7	2	1	347	8	3	4	1.6	3.7	4.35	3.15	0.61781317
562.3974897112203	2.0	REPEAT	1.425605652431841	14_2	76	szakadék	iszonyatos	2	good	0	1478	8	3	4	452	10	4	6	5.1	4.75	5.85	5.65	1.0
568.396808361038	2.0	FILLER	1.4095631853706436	14_2	85	párbeszéd	kötetlen	1	good		6299	9	3	3	695	8	3	5	2.4	5.3	4.4	6.65	0.0
572.3969999587571	2.0	REPEAT	1.6495936360879568	14_2	77	szélvihar	hirtelen	2	good	1	490	9	3	0	6756	8	3	4	4.6	6.2	6.2	6.65	1.0
578.4002888822288	2.0	REPEAT	1.6138834578596288	14_2	79	szerszám	trükkös	2	good	1	812	8	2	4	689	7	2	7	1.7	3.15	3.55	4.15	1.0
586.4137230075721	2.0	REPEAT	1.352884070816799	14_2	78	szemüveg	kényelmes	2	good	0	1594	8	3	4	3437	9	3	8	2.15	6.1	6.05	6.7	1.0
594.4140808445081	2.0	CLOSE	1.3928970011038473	14_2	65	olimpikon	világhírű	2	good	1	644	9	4	2	2877	9	4	4	2.25	6.3	5.75	6.9	0.8306809070000001
604.430636629535	2.0	FILLER	1.5442294889799086	14_2	86	pontszám	egyenlő	1	good		1320	8	2	3	4474	7	3	1	2.5	6.1	5.25	5.9	0.0
614.4301327889989	2.0	DISTANT	1.8162198742793407	14_2	42	kirándulás	mielőbbi	2	no-good	1	1896	10	4	4	1499	8	4	1	2.05	3.85	3.35	5.25	0.63326329
626.4467269960442	2.0	DISTANT	1.63955166132655	14_2	41	királynő	példátlan	2	good	1	2060	8	3	2	2102	9	3	1	2.55	4.55	4.6	5.3	0.661574185
630.4469664931967	2.0	REPEAT	1.0075829665584024	14_2	80	színdarab	humoros	2	good	1	571	9	3	1	799	7	3	7	2.85	5.95	5.95	6.8	1.0
636.450212640164	2.0	FILLER	1.3721104412252316	14_2	87	protokoll	sebészeti	1	good		1295	9	3	3	459	9	4	5	4.45	5.6	3.3	6.25	0.0
648.4638529635995	2.0	REPEAT	1.1349390998366289	14_2	82	találmány	forradalmi	2	good	1	1346	9	3	4	2505	10	4	3	2.9	4.5	4.35	6.45	1.0
658.4673283618613	2.0	CLOSE	1.52331997868896	14_2	66	oroszlán	csendes	2	good	1	1351	8	3	3	2305	7	2	7	2.15	5.45	5.7	6.3	0.851599276
666.4797668450337	2.0	REPEAT	0.0	14_2	81	szőnyeg	használati	2		1	1303	7	2	1	1806	10	4	5	1.9	3.55	4.25	3.8	1.0
676.4832537698967	2.0	CLOSE	1.3867551158327842	14_2	67	osztályzat	átlagos	2	good	1	1028	10	3	3	10804	7	3	7	3.35	5.85	5.35	6.5	0.816440403
682.496583643544	2.0	REPEAT	1.3335373114678075	14_2	83	tananyag	iskolai	2	good	1	1192	8	3	3	5542	7	4	3	3.9	5.65	4.85	6.9	1.0
