onset	duration	trial_type	response_time	stim_list	itemno	noun	adjective	order	response	correctness	noun_freq	noun_char	noun_syll	noun_phon	adj_freq	adj_char	adj_syll	adj_phon	arousal	concreteness	imageability	meaningfulness	cosine
22.083085276652128	2.0	FILLER	1.319493044691626	3_2	76	népcsoport	kétnyelvű	1	good		847	10	3	4	1121	9	3	1	1.85	5.55	4.5	6.55	0.0
26.08328891324345	2.0	REPEAT	1.3994679321185686	3_2	9	baktérium	növényi	1	good	1	1448	9	4	1	968	7	3	7	2.25	4.75	2.95	5.85	1.0
30.083490756864197	2.0	REPEAT	1.223200844891835	3_2	10	barátnő	középkorú	1	good	1	3479	7	3	1	1253	9	4	8	1.95	5.9	5.5	6.1	1.0
36.08679530525114	2.0	CLOSE	1.3317576043191366	3_2	93	útmutatás	erkölcsi	1	no-good	1	703	9	4	2	4377	8	3	7	3.2	4.1	2.7	6.3	1.0
42.09911570482655	2.0	FILLER	1.5508367927977815	3_2	77	nézőpont	kézenfekvő	1	good		1480	8	3	1	875	10	4	1	2.05	3.9	2.25	4.45	0.0
48.099420263199136	2.0	DISTANT	0.9508556964574382	3_2	68	ösztöndíj	tanulmányi	1	good	1	2344	9	3	1	1823	10	4	8	3.6	6.65	4.5	6.8	1.0
54.09970817208523	2.0	REPEAT	1.5588854340603575	3_2	11	barlang	lakatlan	1	good	1	1015	7	2	2	471	8	3	2	2.9	6.2	6.1	6.3	1.0
64.11621657002252	2.0	CLOSE	1.174085485865362	3_2	94	vacsora	zártkörű	1	good	1	2517	7	3	1	562	8	3	1	2.45	5.85	5.4	6.9	1.0
74.11972373042954	2.0	FILLER	1.098630050662905	3_2	78	nyereség	pillanatnyi	1	good		4712	8	3	5	1179	11	4	2	3.8	4.45	3.25	6.35	0.0
80.13302875787485	2.0	FILLER	1.3415626434143633	3_2	79	olvasmány	irodalmi	1	no-good		593	9	3	0	4601	8	4	7	2.85	5.4	6.35	6.85	0.0
88.13243962050183	2.0	FILLER	1.549541971297003	3_2	80	operatőr	hivatásos	1	good		1019	8	4	2	3472	9	4	7	1.35	6.55	5.95	6.55	0.0
94.13273803138873	2.0	REPEAT	1.413554719183594	3_2	12	benzinkút	hajnali	1	good	1	1490	9	3	1	3888	7	3	8	2.85	5.25	6.5	4.8	1.0
100.14904279267648	2.0	REPEAT	1.3568620288860984	3_2	13	bölcsőde	szomszédos	1	good	1	1219	8	3	1	5450	10	3	7	1.7	6.1	5.1	6.55	1.0
108.14944878517416	2.0	DISTANT	1.3008757911156863	3_2	69	pénztárca	ismeretlen	1	good	1	1902	9	3	3	17883	10	4	7	3.55	4.9	4.9	6.15	1.0
114.1527592249331	2.0	FILLER	1.9213214709889144	3_2	81	őrmester	méltatlan	1	no-good		552	8	3	1	1723	9	3	2	3.5	4.7	3.3	5.3	0.0
122.16616491804598	2.0	REPEAT	1.5242643915698864	3_2	14	boríték	érvénytelen	1	good	1	1364	7	3	3	1401	11	4	2	2.8	4.1	4.1	3.4	1.0
130.16557936667232	2.0	CLOSE	1.4522938320296817	3_2	95	végállomás	ideiglenes	1	good	1	893	10	4	4	4073	10	5	1	2.95	4.15	3.65	4.7	1.0
138.16597588174045	2.0	CLOSE	0.0	3_2	96	ventilátor	masszív	1		1	1165	10	4	3	982	7	2	2	1.6	4.5	5.6	5.5	1.0
148.1654917645501	2.0	FILLER	1.1482810123707168	3_2	82	országrész	középső	1	good		1927	10	3	3	3447	7	3	1	1.4	6.0	5.65	6.75	0.0
156.16888493968872	2.0	FILLER	1.3526683953241443	3_2	83	pályafutás	dicséretes	1	good		3897	10	4	5	469	10	4	8	3.05	4.7	4.6	5.5	0.0
166.18239104229724	2.0	REPEAT	1.4116264469339512	3_2	15	csecsemő	egészséges	1	good	1	2039	8	3	2	7076	10	4	8	2.6	6.5	6.55	6.6	1.0
172.18269534455612	2.0	DISTANT	1.1473378802766092	3_2	70	pisztoly	törvénytelen	1	good	1	1679	8	2	3	1475	12	4	3	4.75	4.9	4.9	5.3	1.0
178.19900010584388	2.0	REPEAT	1.578962979838252	3_2	16	csengőhang	többféle	1	no-good	1	2279	10	3	1	2956	8	3	1	2.25	4.55	3.55	5.8	1.0
190.19860845751828	2.0	FILLER	1.826955238124356	3_2	84	parancs	vitathatatlan	1	good		4012	7	2	4	667	13	5	1	4.3	5.7	3.1	6.05	0.0
196.20191300596343	2.0	REPEAT	1.0633709467947483	3_2	10	barátnő	középkorú	2	good	1	3479	7	3	1	1253	9	4	8	1.95	5.9	5.5	6.1	1.0
202.2152226440376	2.0	REPEAT	1.322337809833698	3_2	9	baktérium	növényi	2	good	1	1448	9	4	1	968	7	3	7	2.25	4.75	2.95	5.85	1.0
212.2157267407165	2.0	DISTANT	1.2820958843803965	3_2	68	ösztöndíj	partnerségi	2	good	1	2344	9	3	1	465	11	4	3	2.05	4.7	2.1	4.3	0.680144787
216.21892780583585	2.0	CLOSE	1.9507540062186308	3_2	93	útmutatás	szellemi	2	no-good	1	703	9	4	2	6915	8	3	7	3.0	2.9	2.85	5.0	0.7834023237000001
222.23123232432408	2.0	CLOSE	1.4576734247384593	3_2	94	vacsora	meghívásos	2	good	1	2517	7	3	1	352	10	4	5	2.1	5.8	4.1	6.45	0.7889098529999999
226.23143519245787	2.0	REPEAT	0.9137072545709088	3_2	11	barlang	lakatlan	2	good	1	1015	7	2	2	471	8	3	2	2.9	6.2	6.1	6.3	1.0
230.23163806064983	2.0	DISTANT	1.225662414508406	3_2	71	professzor	közgazdasági	1	good	0	6091	10	3	5	1411	12	5	4	1.9	6.5	5.5	6.65	1.0
238.2320494322339	2.0	REPEAT	1.1057191664003767	3_2	12	benzinkút	hajnali	2	good	1	1490	9	3	1	3888	7	3	8	2.85	5.25	6.5	4.8	1.0
248.2315522514982	2.0	FILLER	0.0	3_2	85	párbeszéd	kötetlen	1			6299	9	3	3	695	8	3	5	2.4	5.3	4.4	6.65	0.0
260.2311623962596	2.0	FILLER	1.2577225024579093	3_2	86	pontszám	egyenlő	1	no-good		1320	8	2	3	4474	7	3	1	2.5	6.1	5.25	5.9	0.0
270.23167135973927	2.0	REPEAT	1.4814878946635872	3_2	14	boríték	érvénytelen	2	good	1	1364	7	3	3	1401	11	4	2	2.8	4.1	4.1	3.4	1.0
274.23487473023124	2.0	DISTANT	1.254211243649479	3_2	69	pénztárca	alvilági	2	good	1	1902	9	3	3	393	8	4	3	3.55	2.25	2.8	2.6	0.690712929
282.24827504419954	2.0	REPEAT	1.441096123366151	3_2	13	bölcsőde	szomszédos	2	good	1	1219	8	3	1	5450	10	3	7	1.7	6.1	5.1	6.55	1.0
288.24759497476043	2.0	CLOSE	1.561102639767341	3_2	96	ventilátor	erőteljes	2	good	1	1165	10	4	3	3772	9	4	1	2.75	5.75	5.6	5.45	0.84082365
292.2477832425502	2.0	REPEAT	1.5608147308812477	3_2	17	csillagász	figyelmes	1	no-good	1	606	10	3	4	1273	9	3	8	1.9	4.4	4.85	5.8	1.0
300.2641914871056	2.0	CLOSE	1.3284653509035709	3_2	95	végállomás	átmeneti	2	good	1	893	10	4	4	6049	8	4	7	3.4	3.25	3.15	4.3	0.847806394
306.2645070598228	2.0	REPEAT	1.072430855128914	3_2	15	csecsemő	egészséges	2	good	1	2039	8	3	2	7076	10	4	8	2.6	6.5	6.55	6.6	1.0
316.2680049989722	2.0	DISTANT	1.2128566169994883	3_2	70	pisztoly	ellenséges	2	good	1	1679	8	2	3	1644	10	4	8	4.95	4.35	4.55	4.35	0.6924996379999999
326.280514178623	2.0	FILLER	1.7917458266601898	3_2	87	protokoll	sebészeti	1	good		1295	9	3	3	459	9	4	5	4.45	5.6	3.3	6.25	0.0
334.2809191465494	2.0	REPEAT	1.1357818224350922	3_2	16	csengőhang	többféle	2	no-good	1	2279	10	3	1	2956	8	3	1	2.25	4.55	3.55	5.8	1.0
342.2973199628177	2.0	CLOSE	1.543080158822704	3_2	97	világítás	hangulatos	1	no-good	1	1393	9	4	5	1112	10	4	5	2.95	5.9	6.4	6.85	1.0
350.2977256992017	2.0	REPEAT	1.7428392272558997	3_2	18	csomagolás	ízléses	1	no-good	1	1577	10	4	4	472	7	3	7	1.35	5.8	6.1	6.05	1.0
356.30102999147493	2.0	REPEAT	1.7795122608658858	3_2	19	diáklány	ártatlan	1	good	1	819	8	3	4	2035	8	3	5	2.8	5.3	5.35	6.6	1.0
360.3142330725095	2.0	REPEAT	0.9664245482999833	3_2	20	diktátor	kegyetlen	1	good	1	1821	8	3	4	1493	9	3	2	6.0	5.8	6.2	6.7	1.0
368.3136395806214	2.0	FILLER	1.5024842386483217	3_2	88	pszichiáter	hűséges	1	good		814	11	4	4	1248	7	3	2	2.55	4.9	3.05	5.05	0.0
378.31415110558737	2.0	REPEAT	1.6384988984791562	3_2	21	díszlet	színpadi	1	no-good	1	1420	7	2	3	1542	8	3	5	2.1	5.9	6.35	6.75	1.0
384.3134559234604	2.0	DISTANT	1.430505738593638	3_2	71	professzor	alkotmányügyi	2	good	0	6091	10	3	5	1277	13	5	2	2.45	5.65	3.5	3.95	0.640873194
390.3137717523496	2.0	REPEAT	1.462536625796929	3_2	22	díszterem	patinás	1	no-good	1	1123	9	3	1	802	7	3	4	2.3	5.2	5.55	5.05	1.0
396.31706451799255	2.0	DISTANT	1.4429091296624392	3_2	72	rémálom	szomorú	1	good	1	769	7	3	1	3745	7	3	3	5.8	4.8	4.45	5.5	1.0
406.330566266086	2.0	REPEAT	1.2058046425227076	3_2	23	egyenruha	rendőri	1	good	1	1598	9	4	1	6998	7	3	1	3.4	6.75	6.65	6.9	1.0
412.3308759474312	2.0	FILLER	1.341591587930452	3_2	89	publicista	hiteles	1	good		1111	10	4	1	4985	7	3	8	1.7	4.2	3.1	5.35	0.0
424.34748526709154	2.0	CLOSE	1.3172584210406058	3_2	98	zarándok	keresztény	1	good	1	1047	8	3	2	7533	10	3	5	2.05	5.9	5.65	5.75	1.0
432.3468856277177	2.0	DISTANT	1.0929492294671943	3_2	73	repülőjegy	érvényes	1	good	1	590	10	4	0	10878	8	3	6	2.8	6.75	6.4	6.9	1.0
440.36330591113074	2.0	REPEAT	1.740526991081424	3_2	24	étterem	elegáns	1	good	1	4657	7	3	4	3281	7	3	1	2.55	6.1	6.75	6.9	1.0
448.36370242619887	2.0	FILLER	0.0	3_2	90	rokonság	tipikus	1			777	8	3	3	1673	7	3	3	2.95	4.25	3.65	3.5	0.0
454.3630169776734	2.0	REPEAT	1.5405712019419298	3_2	17	csillagász	figyelmes	2	no-good	1	606	10	3	4	1273	9	3	8	1.9	4.4	4.85	5.8	1.0
464.3805148702231	2.0	CLOSE	1.4359004439902492	3_2	99	zeneszerző	nagyszerű	1	good	1	2295	10	4	1	4154	9	3	1	2.35	5.5	5.55	6.65	1.0
470.3798186635249	2.0	DISTANT	1.787895685818512	3_2	74	sütemény	születésnapi	1	good	1	1032	8	3	3	731	12	5	2	2.65	6.75	6.7	6.6	1.0
478.3802243999089	2.0	REPEAT	1.6039231938775629	3_2	25	fejedelem	történelmi	1	good	0	903	9	4	3	14910	10	4	7	1.85	5.25	5.15	6.2	1.0
488.3797313175164	2.0	CLOSE	1.155981550225988	3_2	97	világítás	családias	2	no-good	1	1393	9	4	5	351	9	4	4	2.7	3.55	3.95	2.95	0.78756988
500.3803268585471	2.0	FILLER	1.4919455954805017	3_2	91	rosszullét	klinikai	1	good		742	10	3	1	1131	8	4	2	5.9	5.0	4.25	4.1	0.0
506.3796393608791	2.0	REPEAT	1.2359151979908347	3_2	18	csomagolás	ízléses	2	no-good	1	1577	10	4	4	472	7	3	7	1.35	5.8	6.1	6.05	1.0
514.3800445849192	2.0	REPEAT	1.0919735666830093	3_2	20	diktátor	kegyetlen	2	good	1	1821	8	3	4	1493	9	3	2	6.0	5.8	6.2	6.7	1.0
520.3963501146645	2.0	REPEAT	0.8672724706702866	3_2	19	diáklány	ártatlan	2	good	1	819	8	3	4	2035	8	3	5	2.8	5.3	5.35	6.6	1.0
526.3966700418387	2.0	FILLER	1.419293173472397	3_2	92	sorrend	javítási	1	no-good		3666	7	2	5	518	8	4	4	1.75	4.75	3.65	6.15	0.0
532.3969579507248	2.0	DISTANT	1.5711241228273138	3_2	75	szabadidő	kellemes	1	good	1	1588	9	4	1	5875	8	3	8	3.6	4.9	5.65	6.15	1.0
538.4132788492716	2.0	CLOSE	1.3306587350089103	3_2	100	zöldség	rendszeres	1	good	0	2637	7	2	3	5423	10	3	8	1.9	2.0	2.65	2.4	1.0
542.4124817207339	2.0	FILLER	1.650655620265752	3_2	93	sorsolás	helytelen	1	no-good		1643	8	3	4	1039	9	3	3	4.05	4.6	3.0	5.65	0.0
550.4128869448323	2.0	FILLER	1.2826658108388074	3_2	94	szállítás	időigényes	1	good		4813	9	3	5	395	10	5	1	3.15	5.6	4.15	5.9	0.0
556.4161914932192	2.0	REPEAT	1.19106032687705	3_2	21	díszlet	színpadi	2	no-good	1	1420	7	2	3	1542	8	3	5	2.1	5.9	6.35	6.75	1.0
560.4293845845386	2.0	REPEAT	1.282009819173254	3_2	22	díszterem	patinás	2	no-good	1	1123	9	3	1	802	7	3	4	2.3	5.2	5.55	5.05	1.0
566.4296886306838	2.0	REPEAT	0.9940038622007704	3_2	23	egyenruha	rendőri	2	good	1	1598	9	4	1	6998	7	3	1	3.4	6.75	6.65	6.9	1.0
574.4290938580525	2.0	DISTANT	1.3140281551750377	3_2	72	rémálom	erőszakos	2	good	1	769	7	3	1	4257	9	4	1	6.5	4.55	5.7	6.0	0.626735747
580.4463484112639	2.0	FILLER	1.7133864564239047	3_2	95	szekrény	kaotikus	1	good		1129	8	2	4	699	8	4	1	2.75	4.25	5.85	5.1	0.0
592.4460179820308	2.0	CLOSE	1.6251039635390043	3_2	98	zarándok	vallásos	2	good	1	1047	8	3	2	1343	8	3	5	2.25	5.35	5.7	5.8	0.8485714790000001
600.4624095770414	2.0	FILLER	1.5047045181272551	3_2	96	szenzor	mágneses	1	good		959	7	2	3	692	8	3	6	1.55	5.1	3.95	5.4	0.0
606.4627179776435	2.0	DISTANT	1.1447172435582615	3_2	73	repülőjegy	azonnali	2	good	1	590	10	4	0	6934	8	4	2	2.4	6.0	5.7	6.2	0.665511608
614.4661188372411	2.0	REPEAT	1.5252410788671114	3_2	24	étterem	elegáns	2	no-good	1	4657	7	3	4	3281	7	3	1	2.55	6.1	6.75	6.9	1.0
618.4793221743894	2.0	CLOSE	1.1680839689797722	3_2	99	zeneszerző	fantasztikus	2	good	1	2295	10	4	1	3000	12	4	2	2.9	5.6	5.2	6.75	0.9369357229999999
624.4786426172359	2.0	FILLER	1.4000760243507102	3_2	97	szerencse	viszonylagos	1	good		5746	9	3	1	698	12	4	3	3.2	3.45	2.45	3.85	0.0
630.4789359052083	2.0	DISTANT	1.6720528338337317	3_2	74	sütemény	házassági	2	good	1	1032	8	3	3	422	9	4	6	2.4	4.05	4.5	2.7	0.659826398
640.4784425667021	2.0	FILLER	1.680102499667555	3_2	98	szivárgás	fokozatos	1	good		520	9	3	1	1177	9	4	7	4.05	5.25	4.35	6.25	0.0
648.4788436923991	2.0	REPEAT	1.0720681513776071	3_2	25	fejedelem	történelmi	2	good	0	903	9	4	3	14910	10	4	7	1.85	5.25	5.15	6.2	1.0
654.4791536299163	2.0	FILLER	1.5038576971855946	3_2	99	szörnyeteg	láthatatlan	1	good		531	10	3	0	1239	11	4	4	4.55	3.3	4.05	5.35	0.0
664.4956604909385	2.0	FILLER	1.2714414629153907	3_2	100	táplálék	elégséges	1	good		945	8	3	3	1780	9	4	5	3.3	4.95	4.65	6.2	0.0
672.4960657149786	2.0	CLOSE	1.6151839146041311	3_2	100	zöldség	gyakori	2	no-good	0	2637	7	2	3	6043	7	3	1	1.45	4.1	3.9	5.0	0.840808868
684.4956694560242	2.0	DISTANT	1.247461522289086	3_2	75	szabadidő	gyermekkori	2	good	1	1588	9	4	1	470	11	4	7	4.0	5.55	5.3	6.15	0.641961992
