onset	duration	trial_type	response_time	stim_list	itemno	noun	adjective	order	response	correctness	noun_freq	noun_char	noun_syll	noun_phon	adj_freq	adj_char	adj_syll	adj_phon	arousal	concreteness	imageability	meaningfulness	cosine
22.127008216908507	2.0	CLOSE	1.184476116046426	13_2	26	fejfájás	kellemetlen	1	good	1	1351	8	3	4	3486	11	4	1	5.85	5.5	5.25	6.7	1.0
26.149233751953943	2.0	REPEAT	1.3786914165211783	13_2	76	szakadék	iszonyatos	1	no-good	0	1478	8	3	4	452	10	4	6	5.1	4.75	5.85	5.65	1.0
30.149443791699014	2.0	DISTANT	1.4427471354538284	13_2	1	akadály	lehetetlen	1	good	1	6030	7	3	2	5822	10	4	6	5.4	4.65	3.6	6.3	1.0
36.14871531238532	2.0	REPEAT	1.378723690921106	13_2	77	szélvihar	hirtelen	1	good	0	490	9	3	0	6756	8	3	4	4.6	6.2	6.2	6.65	1.0
42.148982984988834	2.0	CLOSE	1.554693197247616	13_2	27	folyadék	elegendő	1	good	1	1438	8	3	3	9296	8	4	1	2.65	4.85	5.45	6.5	1.0
52.165486217678335	2.0	FILLER	1.7460501641508015	13_2	13	célpont	potenciális	1	good		3846	7	2	1	2486	11	5	2	4.55	5.8	4.7	6.4	0.0
58.165742876002696	2.0	CLOSE	1.338043858859237	13_2	28	gorilla	érzékeny	1	no-good	0	659	7	3	2	3895	8	3	3	3.1	4.0	4.3	4.9	1.0
64.16906380930777	2.0	FILLER	1.4464907097117248	13_2	14	családfő	becsületes	1	good		479	8	3	1	1099	10	4	6	2.65	5.8	4.7	6.65	0.0
74.18154606158896	2.0	FILLER	1.3214322763978998	13_2	15	csarnok	hivatali	1	good		1997	7	2	5	4213	8	4	7	1.6	5.45	5.1	4.45	0.0
80.18180246376687	2.0	REPEAT	1.081137073218997	13_2	78	szemüveg	kényelmes	1	good	1	1594	8	3	4	3437	9	3	8	2.15	6.1	6.05	6.7	1.0
88.19819939585432	2.0	REPEAT	1.7206973422034937	13_2	79	szerszám	trükkös	1	no-good	1	812	8	2	4	689	7	2	7	1.7	3.15	3.55	4.15	1.0
94.19852572589843	2.0	DISTANT	1.5926673587728146	13_2	2	albérlet	szegényes	1	good	1	547	8	3	1	439	9	3	7	4.5	5.55	6.5	6.05	1.0
104.20201008037112	2.0	FILLER	1.3011319349297992	13_2	16	császár	tudatos	1	good		1880	7	2	5	2350	7	3	6	2.1	3.9	3.25	4.75	0.0
112.21539294210196	2.0	REPEAT	1.4560680098456942	13_2	80	színdarab	humoros	1	good	0	571	9	3	1	799	7	3	7	2.85	5.95	5.95	6.8	1.0
118.21466318205604	2.0	DISTANT	1.5680478829144704	13_2	3	alkatrész	műszaki	1	good	1	2625	9	3	2	11955	7	3	1	1.6	5.9	5.6	6.45	1.0
122.2148629759613	2.0	DISTANT	1.5040264875478897	13_2	4	alkohol	legális	1	no-good	1	3138	7	3	2	1848	7	3	3	2.75	5.45	5.2	5.3	1.0
132.23134059404947	2.0	FILLER	1.7193489894907543	13_2	17	csemege	temérdek	1	good		805	7	3	1	494	8	3	1	2.3	4.8	5.75	5.75	0.0
138.23160929123696	2.0	DISTANT	1.8233378748027464	13_2	5	állatkert	egzotikus	1	no-good	1	2056	9	3	3	643	9	4	1	2.95	5.45	5.6	6.45	1.0
144.2349227963059	2.0	REPEAT	0.0	13_2	81	szőnyeg	használati	1		0	1303	7	2	1	1806	10	4	5	1.9	3.55	4.25	3.8	1.0
150.2481757919977	2.0	CLOSE	1.582714804702846	13_2	26	fejfájás	borzalmas	2	good	1	1351	8	3	4	1061	9	3	6	5.8	5.95	6.0	6.75	0.831396163
156.24749700501343	2.0	REPEAT	1.5587149460952787	13_2	76	szakadék	iszonyatos	2	good	0	1478	8	3	4	452	10	4	6	5.1	4.75	5.85	5.65	1.0
162.24778619388235	2.0	FILLER	1.7666514772081428	13_2	18	diskurzus	társadalmi	1	good		476	9	3	1	23674	10	4	7	2.4	3.4	2.35	5.5	0.0
170.2641418864605	2.0	FILLER	1.5740424684991012	13_2	19	díszvendég	nagyvonalú	1	good		656	10	3	2	494	10	4	2	2.05	4.75	4.65	5.2	0.0
174.26436806340644	2.0	CLOSE	1.7180541712987178	13_2	29	hangszer	autentikus	1	good	1	1828	8	2	3	526	10	5	1	2.0	4.6	3.7	4.7	1.0
182.264728460872	2.0	DISTANT	0.0	13_2	6	áruházlánc	veszteséges	1		0	935	10	4	2	1234	11	4	8	2.7	4.85	4.1	5.9	1.0
188.28100654120132	2.0	DISTANT	1.709361087268917	13_2	1	akadály	képzeletbeli	2	good	1	6030	7	3	2	646	12	5	1	3.85	3.6	3.95	6.0	0.681170285
192.28123092512575	2.0	REPEAT	1.301359392606173	13_2	77	szélvihar	hirtelen	2	good	0	490	9	3	0	6756	8	3	4	4.6	6.2	6.2	6.65	1.0
198.28048784548628	2.0	DISTANT	1.3573818596869387	13_2	7	ásványvíz	minőségi	1	good	0	963	9	3	1	4832	8	4	2	1.85	6.05	5.25	6.4	1.0
210.28109824148123	2.0	CLOSE	1.533361355708621	13_2	27	folyadék	optimális	2	no-good	1	1438	8	3	3	1679	9	4	2	1.8	3.5	3.45	3.25	0.841039181
218.28048297871285	2.0	CLOSE	1.165401945634585	13_2	28	gorilla	problémás	2	no-good	0	659	7	3	2	1593	9	3	8	3.3	4.7	4.55	4.65	0.775599658
224.2837713814697	2.0	REPEAT	1.5058651037652453	13_2	82	találmány	forradalmi	1	good	0	1346	9	3	4	2505	10	4	3	2.9	4.5	4.35	6.45	1.0
234.2972216096059	2.0	FILLER	1.8446236100553504	13_2	20	dulakodás	szándékos	1	good		585	9	4	0	1215	9	3	7	5.55	5.9	5.6	5.85	0.0
240.2975425605855	2.0	REPEAT	1.4444453836458706	13_2	79	szerszám	trükkös	2	good	1	812	8	2	4	689	7	2	7	1.7	3.15	3.55	4.15	1.0
250.3140058344943	2.0	REPEAT	1.0200480376261112	13_2	78	szemüveg	kényelmes	2	good	1	1594	8	3	4	3437	9	3	8	2.15	6.1	6.05	6.7	1.0
256.3133342195997	2.0	REPEAT	1.1480147529855458	13_2	83	tananyag	iskolai	1	good	1	1192	8	3	3	5542	7	4	3	3.9	5.65	4.85	6.9	1.0
268.3138954355545	2.0	DISTANT	1.6601139388785668	13_2	2	albérlet	hátrányos	2	no-good	1	547	8	3	1	5583	9	3	6	4.3	4.4	4.3	4.05	0.60664767
272.3140829344502	2.0	REPEAT	0.9560386811244824	13_2	80	színdarab	humoros	2	good	0	571	9	3	1	799	7	3	7	2.85	5.95	5.95	6.8	1.0
278.31337238535707	2.0	DISTANT	1.7720103083411232	13_2	4	alkohol	szabványos	2	good	1	3138	7	3	2	1426	10	3	2	1.9	2.9	3.45	2.95	0.640375018
284.3166295382998	2.0	DISTANT	0.0	13_2	3	alkatrész	karbantartási	2		1	2625	9	3	2	503	13	5	4	1.55	4.7	4.65	4.65	0.6785420179
290.32997218510354	2.0	DISTANT	1.355300929322766	13_2	5	állatkert	alternatív	2	no-good	1	2056	9	3	3	4055	10	4	1	2.15	2.55	2.75	2.7	0.67844069
300.33043760244254	2.0	FILLER	1.387077125313226	13_2	21	élettárs	passzív	1	no-good		2516	8	3	3	1448	7	2	5	4.45	3.8	3.8	4.3	0.0
308.346786122931	2.0	CLOSE	1.5706508388902876	13_2	30	háziorvos	elégedetlen	1	good	1	2011	9	4	4	2000	11	5	3	4.1	5.6	5.2	5.6	1.0
318.3463002139088	2.0	REPEAT	1.690668574441588	13_2	81	szőnyeg	használati	2	no-good	0	1303	7	2	1	1806	10	4	5	1.9	3.55	4.25	3.8	1.0
324.34960449772007	2.0	REPEAT	1.2951837117761895	13_2	84	tanfolyam	gyakorlati	1	good	1	1871	9	3	2	3948	10	4	8	1.9	6.1	4.1	6.1	1.0
330.3628779850951	2.0	CLOSE	1.6899949103772087	13_2	29	hangszer	könnyűzenei	2	good	1	1828	8	2	3	420	11	5	1	2.1	6.1	6.2	6.25	0.7948508259999999
342.3634561066883	2.0	REPEAT	1.9060335966260027	13_2	85	távirat	udvarias	1	good	0	635	7	3	2	446	8	4	1	2.1	4.8	4.45	5.15	1.0
348.37974981192565	2.0	DISTANT	1.9452961726910871	13_2	6	áruházlánc	kockázatos	2	no-good	0	935	10	4	2	2073	10	4	4	3.05	2.95	2.7	3.7	0.71600765
358.3792259932907	2.0	DISTANT	1.6413325433786667	13_2	8	aszfalt	hibátlan	1	good	0	977	7	2	4	863	8	3	1	1.95	6.3	6.7	6.65	1.0
366.3836122379398	2.0	DISTANT	1.4535821126046358	13_2	7	ásványvíz	nagysikerű	2	no-good	0	963	9	3	1	627	10	4	1	1.35	4.75	4.35	5.75	0.66301918
374.3960022776519	2.0	FILLER	1.784673399721214	13_2	22	ellenőr	közömbös	1	no-good		1812	7	3	3	568	8	3	1	2.25	5.65	6.15	5.9	0.0
380.3962871120384	2.0	CLOSE	0.0	13_2	31	helyezés	végleges	1		0	5834	8	3	4	7802	8	3	3	2.95	4.45	3.65	5.2	1.0
384.3964577052957	2.0	REPEAT	1.312651078131239	13_2	82	találmány	forradalmi	2	good	0	1346	9	3	4	2505	10	4	3	2.9	4.5	4.35	6.45	1.0
388.4126404993003	2.0	REPEAT	1.056017856451945	13_2	86	telefonszám	otthoni	1	good	1	4732	11	4	2	4288	7	3	8	1.4	6.5	4.3	6.65	1.0
398.4121243650461	2.0	REPEAT	1.7200679914021748	13_2	87	tévéműsor	félelmetes	1	good	1	648	9	4	1	1112	10	4	2	5.45	5.8	5.05	6.6	1.0
404.4164424748524	2.0	FILLER	1.6764703998924233	13_2	23	engedmény	felelőtlen	1	no-good		1190	9	3	2	1991	10	4	1	4.55	3.55	2.45	4.1	0.0
412.42882944081066	2.0	REPEAT	1.687312549132912	13_2	88	törmelék	építkezési	1	good	1	730	8	3	1	395	10	5	7	1.9	6.55	6.8	6.4	1.0
420.4292182704867	2.0	REPEAT	0.871344507961112	13_2	83	tananyag	iskolai	2	good	1	1192	8	3	3	5542	7	4	3	3.9	5.65	4.85	6.9	1.0
432.4458055190771	2.0	FILLER	1.7906564587356115	13_2	24	értékrend	szubjektív	1	good		2241	9	3	4	1070	10	3	1	1.85	4.35	1.65	5.9	0.0
440.4461459371523	2.0	REPEAT	1.1663863148351084	13_2	89	tudomány	mérnöki	1	good	1	3986	8	3	5	877	7	3	6	1.7	4.75	3.4	6.0	1.0
444.4493705595487	2.0	FILLER	1.6991505941441574	13_2	25	értesítés	sokszoros	1	good		2230	9	4	4	516	9	3	3	3.5	4.9	4.55	6.0	0.0
454.4618558855837	2.0	DISTANT	0.0	13_2	9	baktérium	növényi	1		0	1448	9	4	1	968	7	3	7	2.25	4.75	2.95	5.85	1.0
466.46541093636006	2.0	REPEAT	1.698322217875102	13_2	90	tűzijáték	nagyszabású	1	good	1	1585	9	4	1	3070	11	4	1	2.9	6.2	6.9	6.6	1.0
474.4787830399564	2.0	REPEAT	1.3413353353698767	13_2	91	újságcikk	botrányos	1	good	1	503	9	3	0	1508	9	3	4	3.75	5.45	5.65	6.55	1.0
478.4790243295192	2.0	CLOSE	1.677351286096382	13_2	30	háziorvos	türelmetlen	2	good	1	2011	9	4	4	480	11	4	1	4.55	6.25	5.95	6.6	0.7620039581999999
486.48237267044897	2.0	CLOSE	1.6816737503850163	13_2	32	horgász	tradicionális	1	no-good	1	707	7	2	2	850	13	6	1	2.1	4.65	5.0	4.65	1.0
492.4956871411887	2.0	REPEAT	1.0287101279900526	13_2	84	tanfolyam	gyakorlati	2	good	1	1871	9	3	2	3948	10	4	8	1.9	6.1	4.1	6.1	1.0
500.495036786413	2.0	REPEAT	1.548671204038328	13_2	85	távirat	udvarias	2	good	0	635	7	3	2	446	8	4	1	2.1	4.8	4.45	5.15	1.0
508.5114534417444	2.0	FILLER	1.5799868494614202	13_2	101	tartozás	nagymértékű	1	good		5559	8	3	4	437	11	4	1	5.25	5.1	4.8	6.65	0.0
514.511747753535	2.0	DISTANT	1.9079718536486323	13_2	8	aszfalt	költséges	2	no-good	0	977	7	2	4	1185	9	3	7	3.0	4.4	3.5	4.8	0.619830132
520.5120128646795	2.0	REPEAT	1.9397045048135624	13_2	92	útlezárás	helyszíni	1	good	1	1291	9	4	3	4087	9	3	7	3.75	6.6	6.45	6.5	1.0
530.5114811055173	2.0	CLOSE	1.2279855933229555	13_2	31	helyezés	jogerős	2	good	0	5834	8	3	4	4058	7	3	1	2.55	2.65	1.5	3.3	0.78364414
536.5117705505327	2.0	CLOSE	1.5879742511751829	13_2	33	iránytű	hasznos	1	no-good	0	794	7	3	2	9089	7	2	7	1.75	5.45	6.15	6.3	1.0
548.5113789032494	2.0	FILLER	1.547942724722816	13_2	102	tehetség	példaértékű	1	good		4105	8	3	4	885	11	5	3	3.05	4.05	3.8	6.1	0.0
558.5108609759736	2.0	FILLER	1.7960088862182602	13_2	103	testmozgás	komplex	1	good		624	10	3	3	2818	7	2	2	2.15	5.2	5.7	6.05	0.0
568.5113479095799	2.0	REPEAT	0.9879872633955528	13_2	86	telefonszám	otthoni	2	good	1	4732	11	4	2	4288	7	3	8	1.4	6.5	4.3	6.65	1.0
574.5116309509449	2.0	FILLER	1.9239914826321185	13_2	104	testrész	előnytelen	1	no-good		636	8	2	2	473	10	4	1	4.75	4.15	5.1	5.95	0.0
582.510983669923	2.0	FILLER	1.6199704766077048	13_2	105	tiltakozás	egyhangú	1	good		5386	10	4	4	892	8	3	2	4.2	5.3	4.75	6.55	0.0
592.5274664109311	2.0	REPEAT	1.8433428798962268	13_2	87	tévéműsor	félelmetes	2	good	1	648	9	4	1	1112	10	4	2	5.45	5.8	5.05	6.6	1.0
600.5278629249879	2.0	REPEAT	0.9710670249623944	13_2	89	tudomány	mérnöki	2	good	1	3986	8	3	5	877	7	3	6	1.7	4.75	3.4	6.0	1.0
606.531140057321	2.0	REPEAT	1.6878143392095808	13_2	88	törmelék	építkezési	2	good	1	730	8	3	1	395	10	5	7	1.9	6.55	6.8	6.4	1.0
612.5444663107774	2.0	DISTANT	1.7146599802308629	13_2	9	baktérium	szabadtéri	2	no-good	0	1448	9	4	1	2682	10	4	5	3.7	3.25	2.6	3.2	0.6112335320000001
618.5437186205108	2.0	REPEAT	1.378641980336397	13_2	90	tűzijáték	nagyszabású	2	good	1	1585	9	4	1	3070	11	4	1	2.9	6.2	6.9	6.6	1.0
626.5471566125507	2.0	FILLER	1.2951565602961637	13_2	106	tinédzser	kíváncsi	1	good		795	9	3	2	5894	8	3	2	2.1	5.25	5.55	6.8	0.0
634.5605212879127	2.0	REPEAT	1.4579506831796607	13_2	91	újságcikk	botrányos	2	good	1	503	9	3	0	1508	9	3	4	3.75	5.45	5.65	6.55	1.0
638.5607192887965	2.0	FILLER	0.0	13_2	107	titkárság	egyszemélyes	1			1040	9	3	3	628	12	4	1	1.5	4.65	5.45	5.4	0.0
646.5641045147531	2.0	FILLER	0.0	13_2	108	üdvözlet	kölcsönös	1			726	8	3	1	2208	9	3	4	2.65	5.8	5.3	6.5	0.0
654.5774850711696	2.0	FILLER	1.5532887485551328	13_2	109	ügyintézés	zökkenőmentes	1	good		1849	10	4	3	887	13	5	1	1.9	5.55	4.55	6.5	0.0
660.5767750343693	2.0	CLOSE	1.2253749529645577	13_2	32	horgász	hagyományos	2	no-good	1	707	7	2	2	15070	11	4	6	1.3	4.15	5.5	4.8	0.8027049303
668.5771592534165	2.0	FILLER	1.537302418557374	13_2	110	utasítás	elnökségi	1	good		5327	8	4	4	4277	9	4	8	2.7	5.0	2.7	5.85	0.0
674.5774527967696	2.0	REPEAT	1.4813065906619158	13_2	92	útlezárás	helyszíni	2	good	1	1291	9	4	3	4087	9	3	7	3.75	6.6	6.45	6.5	1.0
682.5768375340012	2.0	FILLER	1.32906747731613	13_2	111	útvonal	ajánlatos	1	good		5624	7	3	3	584	9	4	5	1.6	4.8	4.55	5.65	0.0
690.5932229395166	2.0	CLOSE	1.488647735937775	13_2	33	iránytű	előnyös	2	no-good	0	794	7	3	2	2414	7	3	1	1.35	2.9	3.25	2.35	0.8048268559999999
696.593507773905	2.0	FILLER	1.5525963858308387	13_2	112	üzemanyag	kártékony	1	good		3744	9	4	4	6706	9	3	1	3.75	5.1	4.25	5.7	0.0
