onset	duration	trial_type	response_time	stim_list	itemno	noun	adjective	jitter	response	counterbalance	noun_freq	noun_char	noun_syll	noun_phon	adj_freq	adj_char	adj_syll	adj_phon	arousal	concreteness	imageability	meaningfulness	cosine
24.066154835665657	2.0	BASELINE	1.2876404672815625	StimuliTable-5789-Mapping-Run5.xlsx	79	szerszám	trükkös	6	2	1	812	8	2	4	689	7	2	7	1.7	3.15	3.55	4.15	1.0
34.078631452734044	2.0	BASELINE	1.2429611710795143	StimuliTable-5789-Mapping-Run5.xlsx	38	kerékpár	elektromos	8	3	1	3466	8	3	3	4185	10	4	2	1.75	6.55	6.7	6.95	1.0
44.09508345621907	2.0	CLOSE	1.266527630600649	StimuliTable-5789-Mapping-Run5.xlsx	37	képregény	élvezetes	8	3	1	1156	9	3	5	1070	9	4	8	2.6	5.5	6.0	6.3	0.852174282
56.11369297773035	2.0	BASELINE	1.1839717645107155	StimuliTable-5789-Mapping-Run5.xlsx	34	kánikula	tavaszi	10	3	1	1200	8	4	1	5301	7	3	7	4.05	5.35	5.25	5.1	1.0
66.1141788867535	2.0	CLOSE	1.1273862884518169	StimuliTable-5789-Mapping-Run5.xlsx	1	akadály	reménytelen	8	4	1	6030	7	3	2	1273	11	4	4	4.8	3.9	2.9	4.5	0.8418771620000001
74.12756533452739	2.0	CLOSE	1.4649906007216489	StimuliTable-5789-Mapping-Run5.xlsx	51	magazin	kutatási	6	3	1	7307	7	3	2	3464	8	4	6	1.7	4.85	4.8	5.1	0.882873833
82.12694597342215	2.0	BASELINE	1.3224309897768762	StimuliTable-5789-Mapping-Run5.xlsx	5	állatkert	egzotikus	6	3	1	2056	9	3	3	643	9	4	1	2.95	5.45	5.6	6.45	1.0
94.14452271413302	2.0	DISTANT	1.072398651340336	StimuliTable-5789-Mapping-Run5.xlsx	28	gorilla	önzetlen	10	1	1	659	7	3	2	338	8	3	1	2.25	4.35	3.65	4.75	0.626140475
106.15410155114296	2.0	CLOSE	1.5263946959330497	StimuliTable-5789-Mapping-Run5.xlsx	66	oroszlán	csendes	10	3	1	1351	8	3	3	2305	7	2	7	2.15	5.45	5.7	6.3	0.851599276
114.16148675353544	2.0	BASELINE	1.711579311904643	StimuliTable-5789-Mapping-Run5.xlsx	16	csengőhang	többféle	6	3	1	2279	10	3	1	2956	8	3	1	2.25	4.55	3.55	5.8	1.0
122.15987200895052	2.0	DISTANT	1.505076173987618	StimuliTable-5789-Mapping-Run5.xlsx	29	hangszer	vezérkari	6	2	1	1828	8	2	3	996	9	4	6	1.6	4.65	4.05	4.85	0.6304627660000001
130.1712341346347	2.0	CLOSE	1.5411999365778684	StimuliTable-5789-Mapping-Run5.xlsx	69	pénztárca	titokzatos	6	3	1	1902	9	3	3	1438	10	4	2	2.65	3.3	3.3	3.25	0.799133718
142.1818337135819	2.0	BASELINE	1.2589085668805635	StimuliTable-5789-Mapping-Run5.xlsx	42	kirándulás	hétvégi	10	4	1	1896	10	4	4	4177	7	3	5	2.95	6.05	6.3	6.9	1.0
154.19445633388932	2.0	CLOSE	1.166413466314225	StimuliTable-5789-Mapping-Run5.xlsx	19	diáklány	védtelen	10	3	1	819	8	3	4	650	8	3	5	4.7	5.4	6.25	6.05	0.762401283
162.1938139196409	2.0	BASELINE	1.1107667654623583	StimuliTable-5789-Mapping-Run5.xlsx	68	ösztöndíj	tanulmányi	6	4	1	2344	9	3	1	1823	10	4	8	3.6	6.65	4.5	6.8	1.0
170.20418911466368	2.0	DISTANT	1.2838781943655704	StimuliTable-5789-Mapping-Run5.xlsx	18	csomagolás	karakteres	6	1	1	1577	10	4	4	625	10	4	6	1.85	4.5	4.7	5.35	0.7101491090000001
182.21473080460785	2.0	CLOSE	1.2816123265665738	StimuliTable-5789-Mapping-Run5.xlsx	80	színdarab	mulatságos	10	4	1	571	9	3	1	401	10	4	5	3.3	5.9	6.2	6.9	0.8485735059999999
194.2263413919436	2.0	BASELINE	1.3491841620807463	StimuliTable-5789-Mapping-Run5.xlsx	14	boríték	érvénytelen	10	2	1	1364	7	3	3	1401	11	4	2	2.8	4.1	4.1	3.4	1.0
204.2277901539001	2.0	BASELINE	1.3405569075803214	StimuliTable-5789-Mapping-Run5.xlsx	67	osztályzat	közepes	8	3	1	1028	10	3	3	4363	7	3	8	4.55	6.45	6.4	6.95	1.0
214.243305431346	2.0	DISTANT	1.188595968824302	StimuliTable-5789-Mapping-Run5.xlsx	82	találmány	kapitalista	8	4	1	1346	9	3	4	357	11	5	1	3.35	4.65	3.95	5.1	0.6249907020000001
222.2436584005773	2.0	DISTANT	1.4205034140422867	StimuliTable-5789-Mapping-Run5.xlsx	27	folyadék	aránytalan	6	2	1	1438	8	3	3	727	10	4	2	2.25	3.1	2.9	2.5	0.676598668
230.25407534740407	2.0	BASELINE	1.4420455514737114	StimuliTable-5789-Mapping-Run5.xlsx	64	novella	tanulságos	6	4	1	925	7	3	1	805	10	4	6	2.45	5.4	3.05	6.5	1.0
242.26365879504283	2.0	DISTANT	1.6716948132734617	StimuliTable-5789-Mapping-Run5.xlsx	76	szakadék	kedvezőtlen	10	2	1	1478	8	3	4	3202	11	4	2	3.95	2.85	3.3	2.35	0.659476936
254.2762027785184	2.0	CLOSE	1.3713177406998511	StimuliTable-5789-Mapping-Run5.xlsx	74	sütemény	jubileumi	10	1	1	1032	8	3	3	1377	9	5	4	1.55	4.35	3.15	3.8	0.8020977970000001
262.2756220954634	2.0	CLOSE	1.676308003307895	StimuliTable-5789-Mapping-Run5.xlsx	52	matrica	ingyenes	6	3	1	1479	7	3	2	13952	8	3	1	2.65	6.2	4.8	6.5	0.863539815
272.29210406803395	2.0	BASELINE	1.3475481573750585	StimuliTable-5789-Mapping-Run5.xlsx	28	gorilla	érzékeny	8	2	1	659	7	3	2	3895	8	3	3	3.1	4.0	4.3	4.9	1.0
284.29969290652207	2.0	CLOSE	1.5796082656279395	StimuliTable-5789-Mapping-Run5.xlsx	60	mutatvány	nevetséges	10	3	1	716	9	3	3	1625	10	4	3	2.6	4.8	5.3	5.75	0.8695170879999999
296.3112773669618	2.0	DISTANT	1.7683648380143495	StimuliTable-5789-Mapping-Run5.xlsx	15	csecsemő	tevékeny	10	2	1	2039	8	3	2	403	8	3	2	2.4	4.65	4.65	4.15	0.655481756
306.3187417184781	2.0	BASELINE	1.3281281898180168	StimuliTable-5789-Mapping-Run5.xlsx	39	készpénz	csekély	8	3	1	3600	8	2	3	3258	7	2	2	4.95	4.5	5.7	6.15	1.0
318.32931542667575	2.0	DISTANT	1.5580853391493292	StimuliTable-5789-Mapping-Run5.xlsx	7	ásványvíz	nagysikerű	10	2	1	963	9	3	1	627	10	4	1	1.35	4.75	4.35	5.75	0.66301918
330.33589120760735	2.0	DISTANT	1.1908518469290357	StimuliTable-5789-Mapping-Run5.xlsx	63	napsütés	hosszas	10	4	1	3340	8	3	2	1776	7	2	7	2.9	5.35	6.4	6.35	0.72304523
340.3473755149489	2.0	BASELINE	1.3477592217050187	StimuliTable-5789-Mapping-Run5.xlsx	2	albérlet	szegényes	8	4	1	547	8	3	1	439	9	3	7	4.5	5.55	6.5	6.05	1.0
350.3528245094867	2.0	DISTANT	1.7101333675545902	StimuliTable-5789-Mapping-Run5.xlsx	38	kerékpár	hardveres	8	1	1	3466	8	3	3	1550	9	3	5	1.65	2.65	1.5	2.4	0.6436905860000001
358.3622099562417	2.0	DISTANT	1.4448467644788252	StimuliTable-5789-Mapping-Run5.xlsx	33	iránytű	funkcionális	6	2	1	794	7	3	2	570	12	5	1	1.75	4.9	4.85	4.9	0.6793020959999999
368.3697024838221	2.0	BASELINE	1.6204948075355787	StimuliTable-5789-Mapping-Run5.xlsx	82	találmány	forradalmi	8	3	1	1346	9	3	4	2505	10	4	3	2.9	4.5	4.35	6.45	1.0
376.39311448728586	2.0	DISTANT	1.1891712728129278	StimuliTable-5789-Mapping-Run5.xlsx	77	szélvihar	kíméletlen	6	4	1	490	9	3	0	564	10	4	2	5.5	5.75	6.05	6.5	0.6293716429999999
386.4015970192795	2.0	BASELINE	1.460921721003615	StimuliTable-5789-Mapping-Run5.xlsx	45	kolostor	hajdani	8	4	1	1099	8	3	4	1367	7	3	7	2.3	4.65	5.65	5.75	1.0
398.4111704772231	2.0	DISTANT	1.5069083865546418	StimuliTable-5789-Mapping-Run5.xlsx	100	zöldség	korlátlan	10	2	1	2637	7	2	3	1924	9	3	2	2.05	3.9	4.75	3.95	0.7183503509999999
408.4196307245111	2.0	CLOSE	1.5785616529410618	StimuliTable-5789-Mapping-Run5.xlsx	43	kolbász	méternyi	8	3	1	867	7	2	2	324	8	3	1	2.75	5.95	6.65	5.85	0.762132525
416.443038117347	2.0	BASELINE	1.3152309809647704	StimuliTable-5789-Mapping-Run5.xlsx	26	fejfájás	kellemetlen	6	4	1	1351	8	3	4	3486	11	4	1	5.85	5.5	5.25	6.7	1.0
428.4526169543569	2.0	CLOSE	1.3212688552293912	StimuliTable-5789-Mapping-Run5.xlsx	34	kánikula	márciusi	10	3	1	1200	8	4	1	2871	8	4	5	3.2	5.55	5.4	4.95	0.774796665
436.4760235787544	2.0	CLOSE	1.6977651002562195	StimuliTable-5789-Mapping-Run5.xlsx	6	áruházlánc	nyereséges	6	3	1	935	10	4	2	888	10	4	8	1.75	5.95	4.4	6.5	0.9131852979999999
444.4804047004845	2.0	DISTANT	0.0	StimuliTable-5789-Mapping-Run5.xlsx	56	monitor	digitális	6	0	1	3644	7	3	3	11798	9	4	1	1.65	6.1	6.45	5.5	0.7256274220000001
452.4897519814813	2.0	CLOSE	1.4916851155849145	StimuliTable-5789-Mapping-Run5.xlsx	15	csecsemő	normális	6	4	1	2039	8	3	2	4470	8	3	4	2.95	4.65	4.75	4.45	0.7993261220000001
462.4972603901151	2.0	BASELINE	1.6923040668561953	StimuliTable-5789-Mapping-Run5.xlsx	27	folyadék	elegendő	8	3	1	1438	8	3	3	9296	8	4	1	2.65	4.85	5.45	6.5	1.0
474.507811813608	2.0	CLOSE	1.6903015171783409	StimuliTable-5789-Mapping-Run5.xlsx	53	mellény	szabadidős	10	3	1	909	7	2	5	608	10	4	1	2.05	4.15	4.65	4.85	0.7459257840000001
482.5142359560887	2.0	CLOSE	1.451705586775461	StimuliTable-5789-Mapping-Run5.xlsx	17	csillagász	türelmes	6	3	1	606	10	3	4	495	8	3	7	2.2	4.5	4.55	5.3	0.7566338779999999
492.5227051684888	2.0	DISTANT	1.4344487724583814	StimuliTable-5789-Mapping-Run5.xlsx	13	bölcsőde	lokális	8	2	1	1219	8	3	1	578	7	3	3	1.75	4.7	5.35	6.55	0.6315799952000001
502.5241987560012	2.0	BASELINE	1.833667219686504	StimuliTable-5789-Mapping-Run5.xlsx	74	sütemény	születésnapi	8	3	1	1032	8	3	3	731	12	5	2	2.65	6.75	6.7	6.6	1.0
512.5396848327991	2.0	DISTANT	0.0	StimuliTable-5789-Mapping-Run5.xlsx	54	menetrend	naprakész	8	0	1	4833	9	3	2	816	9	3	1	2.3	5.35	4.4	6.1	0.7033958440000001
524.5462470379907	2.0	BASELINE	1.4434138835758858	StimuliTable-5789-Mapping-Run5.xlsx	32	horgász	tradicionális	10	3	1	707	7	2	2	850	13	6	1	2.1	4.65	5.0	4.65	1.0
534.5566926731726	2.0	DISTANT	1.416414811080358	StimuliTable-5789-Mapping-Run5.xlsx	78	szemüveg	elsődleges	8	1	1	1594	8	3	4	6398	10	4	1	2.3	4.25	3.75	3.75	0.657139182
544.5572367273444	2.0	CLOSE	1.4323427397839623	StimuliTable-5789-Mapping-Run5.xlsx	42	kirándulás	tegnapi	8	3	1	1896	10	4	4	6241	7	3	8	2.15	6.7	5.15	6.1	0.839792311
556.5747847797002	2.0	CLOSE	1.4380760564172306	StimuliTable-5789-Mapping-Run5.xlsx	45	kolostor	egykori	10	3	1	1099	8	3	4	20851	7	3	4	2.55	5.0	5.95	6.4	0.889039457
568.5843305738717	2.0	BASELINE	1.460150977593912	StimuliTable-5789-Mapping-Run5.xlsx	46	költészet	mágikus	10	2	1	1207	9	3	4	454	7	3	1	2.6	3.0	3.15	3.85	1.0
576.6077197803388	2.0	CLOSE	1.604826867054726	StimuliTable-5789-Mapping-Run5.xlsx	29	hangszer	könnyűzenei	6	3	1	1828	8	2	3	420	11	5	1	2.1	6.1	6.2	6.25	0.7948508259999999
586.6161979578501	2.0	DISTANT	1.4205290286454328	StimuliTable-5789-Mapping-Run5.xlsx	67	osztályzat	alapfokú	8	1	1	1028	10	3	3	821	8	4	4	2.6	4.3	2.9	3.95	0.713177145
594.6225864960325	2.0	DISTANT	1.3658505597950352	StimuliTable-5789-Mapping-Run5.xlsx	81	szőnyeg	templomi	6	2	1	1303	7	2	1	410	8	3	8	1.9	6.4	6.05	6.5	0.613664091
606.6261932883071	2.0	CLOSE	1.2665588804165964	StimuliTable-5789-Mapping-Run5.xlsx	76	szakadék	rettenetes	10	4	1	1478	8	3	4	868	10	4	8	5.2	5.15	6.55	6.15	0.891412258
616.6406911537142	2.0	BASELINE	1.259510510056316	StimuliTable-5789-Mapping-Run5.xlsx	80	színdarab	humoros	8	4	1	571	9	3	1	799	7	3	7	2.85	5.95	5.95	6.8	1.0
626.6491619029903	2.0	DISTANT	1.331231398995442	StimuliTable-5789-Mapping-Run5.xlsx	69	pénztárca	alvilági	8	1	1	1902	9	3	3	393	8	4	3	3.55	2.25	2.8	2.6	0.690712929
638.6587353609339	2.0	CLOSE	1.369257814310913	StimuliTable-5789-Mapping-Run5.xlsx	14	boríték	szavazási	10	2	1	1364	7	3	3	407	9	4	7	3.5	6.65	6.65	6.85	0.75406909
646.6661003277895	2.0	DISTANT	1.658651345034741	StimuliTable-5789-Mapping-Run5.xlsx	52	matrica	kedvezményes	6	3	1	1479	7	3	2	3115	12	4	6	1.9	5.2	5.8	6.1	0.701929092
