onset	duration	trial_type	response_time	stim_list	itemno	noun	adjective	jitter	response	counterbalance	noun_freq	noun_char	noun_syll	noun_phon	adj_freq	adj_char	adj_syll	adj_phon	arousal	concreteness	imageability	meaningfulness	cosine
24.036109162267167	2.0	BASELINE	1.420844600557757	StimuliTable-8566-Mapping-Run5.xlsx	4	alkohol	legális	6	2	2	3138	7	3	2	1848	7	3	3	2.75	5.45	5.2	5.3	1.0
34.043567878570684	2.0	BASELINE	1.2205635059017368	StimuliTable-8566-Mapping-Run5.xlsx	8	aszfalt	hibátlan	8	3	2	977	7	2	4	863	8	3	1	1.95	6.3	6.7	6.65	1.0
44.05207756204436	2.0	CLOSE	1.2602469298981305	StimuliTable-8566-Mapping-Run5.xlsx	90	tűzijáték	nevezetes	8	1	2	1585	9	4	1	817	9	4	5	2.8	4.0	5.05	3.5	0.772080302
56.06165025154951	2.0	BASELINE	1.2102495297804126	StimuliTable-8566-Mapping-Run5.xlsx	64	novella	tanulságos	10	3	2	925	7	3	1	805	10	4	6	2.45	5.4	3.05	6.5	1.0
66.08713319568051	2.0	CLOSE	1.3612732302026416	StimuliTable-8566-Mapping-Run5.xlsx	2	albérlet	siralmas	8	3	2	547	8	3	1	402	8	3	5	5.05	5.45	6.05	6.0	0.7793105840000001
74.0905409624902	2.0	CLOSE	1.053455115401448	StimuliTable-8566-Mapping-Run5.xlsx	89	tudomány	építészeti	6	3	2	3986	8	3	5	1116	10	5	7	1.75	3.95	4.45	5.85	0.7951859240000001
82.09990361224845	2.0	BASELINE	1.5959603721603344	StimuliTable-8566-Mapping-Run5.xlsx	56	monitor	kijelzős	6	2	2	3644	7	3	3	489	8	3	2	1.25	6.0	6.15	5.15	1.0
94.1094870598863	2.0	DISTANT	1.2179620868009806	StimuliTable-8566-Mapping-Run5.xlsx	70	pisztoly	ellenséges	10	1	2	1679	8	2	3	1644	10	4	8	4.95	4.35	4.55	4.35	0.6924996379999999
106.12007946674566	2.0	CLOSE	1.30400640570042	StimuliTable-8566-Mapping-Run5.xlsx	94	vacsora	meghívásos	10	3	2	2517	7	3	1	352	10	4	5	2.1	5.8	4.1	6.45	0.7889098529999999
114.12645084314318	2.0	BASELINE	1.2733511047445063	StimuliTable-8566-Mapping-Run5.xlsx	81	szőnyeg	használati	6	1	2	1303	7	2	1	1806	10	4	5	1.9	3.55	4.25	3.8	1.0
122.13284680955984	2.0	DISTANT	1.370695818133754	StimuliTable-8566-Mapping-Run5.xlsx	48	legénység	nagyszámú	6	3	2	1179	9	3	4	672	9	3	3	2.75	5.4	6.4	6.45	0.624375463
130.13721640471886	2.0	CLOSE	1.5508481891629344	StimuliTable-8566-Mapping-Run5.xlsx	18	csomagolás	tetszetős	6	3	2	1577	10	4	4	725	9	3	1	2.1	5.45	6.35	6.25	0.890869737
142.1497952240552	2.0	BASELINE	1.0981492680748488	StimuliTable-8566-Mapping-Run5.xlsx	7	ásványvíz	minőségi	10	4	2	963	9	3	1	4832	8	4	2	1.85	6.05	5.25	6.4	1.0
154.15937790325552	2.0	CLOSE	1.0960557865564624	StimuliTable-8566-Mapping-Run5.xlsx	29	hangszer	könnyűzenei	10	3	2	1828	8	2	3	420	11	5	1	2.1	6.1	6.2	6.25	0.7948508259999999
162.16575824476422	2.0	BASELINE	1.177440809135078	StimuliTable-8566-Mapping-Run5.xlsx	26	fejfájás	kellemetlen	6	4	2	1351	8	3	4	3486	11	4	1	5.85	5.5	5.25	6.7	1.0
170.16516910889186	2.0	DISTANT	1.058493507849562	StimuliTable-8566-Mapping-Run5.xlsx	55	mikrofon	köztéri	6	1	2	1847	8	3	1	615	7	3	2	1.65	5.9	5.5	5.45	0.60200268
182.1827373967826	2.0	CLOSE	1.2408105689955846	StimuliTable-8566-Mapping-Run5.xlsx	51	magazin	kutatási	10	4	2	7307	7	3	2	3464	8	4	6	1.7	4.85	4.8	5.1	0.882873833
194.19230214576052	2.0	BASELINE	1.446828310181445	StimuliTable-8566-Mapping-Run5.xlsx	30	háziorvos	elégedetlen	10	2	2	2011	9	4	4	2000	11	5	3	4.1	5.6	5.2	5.6	1.0
204.2007823724398	2.0	BASELINE	1.238567498194243	StimuliTable-8566-Mapping-Run5.xlsx	1	akadály	lehetetlen	8	3	2	6030	7	3	2	5822	10	4	6	5.4	4.65	3.6	6.3	1.0
214.20826824022333	2.0	DISTANT	1.5422296436263423	StimuliTable-8566-Mapping-Run5.xlsx	33	iránytű	funkcionális	8	2	2	794	7	3	2	570	12	5	1	1.75	4.9	4.85	4.9	0.6793020959999999
222.21567060440063	2.0	DISTANT	1.3195503715014638	StimuliTable-8566-Mapping-Run5.xlsx	38	kerékpár	hardveres	6	1	2	3466	8	3	3	1550	9	3	5	1.65	2.65	1.5	2.4	0.6436905860000001
230.22204812830205	2.0	BASELINE	1.3849052631085217	StimuliTable-8566-Mapping-Run5.xlsx	95	végállomás	ideiglenes	6	3	2	893	10	4	4	4073	10	5	1	2.95	4.15	3.65	4.7	1.0
242.23161825634816	2.0	DISTANT	1.574920280951119	StimuliTable-8566-Mapping-Run5.xlsx	66	oroszlán	jelentéktelen	10	2	2	1351	8	3	3	1068	13	5	3	4.0	3.05	3.55	3.15	0.658192992
254.23419585386728	2.0	CLOSE	1.2040451605953422	StimuliTable-8566-Mapping-Run5.xlsx	52	matrica	ingyenes	10	3	2	1479	7	3	2	13952	8	3	1	2.65	6.2	4.8	6.5	0.863539815
262.2485761482458	2.0	CLOSE	1.5343257455187995	StimuliTable-8566-Mapping-Run5.xlsx	93	útmutatás	szellemi	6	2	2	703	9	4	2	6915	8	3	7	3.0	2.9	2.85	5.0	0.7834023237000001
272.249063081852	2.0	BASELINE	1.1897401731494028	StimuliTable-8566-Mapping-Run5.xlsx	91	újságcikk	botrányos	8	4	2	503	9	3	0	1508	9	3	4	3.75	5.45	5.65	6.55	1.0
284.26665032455094	2.0	CLOSE	1.452016548058964	StimuliTable-8566-Mapping-Run5.xlsx	8	aszfalt	szabályos	10	2	2	977	7	2	4	978	9	3	5	1.1	5.1	5.6	4.75	0.777173936
296.266233831102	2.0	DISTANT	1.7080585846942995	StimuliTable-8566-Mapping-Run5.xlsx	42	kirándulás	mielőbbi	10	1	2	1896	10	4	4	1499	8	4	1	2.05	3.85	3.35	5.25	0.63326329
306.28470119156555	2.0	BASELINE	1.2257102481198672	StimuliTable-8566-Mapping-Run5.xlsx	39	készpénz	csekély	8	2	2	3600	8	2	3	3258	7	2	2	4.95	4.5	5.7	6.15	1.0
318.29127466718273	2.0	DISTANT	1.3785474624492051	StimuliTable-8566-Mapping-Run5.xlsx	5	állatkert	alternatív	10	2	2	2056	9	3	3	4055	10	4	1	2.15	2.55	2.75	2.7	0.67844069
330.3018350557886	2.0	DISTANT	1.3920678745998885	StimuliTable-8566-Mapping-Run5.xlsx	43	kolbász	szezonális	10	1	2	867	7	2	2	973	10	4	1	1.6	3.9	3.95	3.15	0.605840862
340.31333447574434	2.0	BASELINE	1.0925281434047065	StimuliTable-8566-Mapping-Run5.xlsx	3	alkatrész	műszaki	8	4	2	2625	9	3	2	11955	7	3	1	1.6	5.9	5.6	6.45	1.0
350.3208159890455	2.0	DISTANT	1.277201748041989	StimuliTable-8566-Mapping-Run5.xlsx	81	szőnyeg	templomi	8	1	2	1303	7	2	1	410	8	3	8	1.9	6.4	6.05	6.5	0.613664091
358.3241799548832	2.0	DISTANT	1.5452613880606805	StimuliTable-8566-Mapping-Run5.xlsx	19	diáklány	törékeny	6	2	2	819	8	3	4	854	8	3	1	3.7	6.1	6.6	6.6	0.649407744
368.3356829608838	2.0	BASELINE	0.9421466010844596	StimuliTable-8566-Mapping-Run5.xlsx	18	csomagolás	ízléses	8	4	2	1577	10	4	4	472	7	3	7	1.35	5.8	6.1	6.05	1.0
376.3420945522103	2.0	DISTANT	0.999544060063272	StimuliTable-8566-Mapping-Run5.xlsx	65	olimpikon	bravúros	6	3	2	644	9	4	2	461	8	3	2	2.9	5.15	5.5	6.5	0.613806427
386.3665769899417	2.0	BASELINE	0.9905210599426936	StimuliTable-8566-Mapping-Run5.xlsx	44	kollégium	főiskolai	8	4	2	3139	9	4	3	1294	9	5	2	2.5	6.6	6.2	6.45	1.0
398.374129455693	2.0	DISTANT	1.239244236010563	StimuliTable-8566-Mapping-Run5.xlsx	28	gorilla	önzetlen	10	2	2	659	7	3	2	338	8	3	1	2.25	4.35	3.65	4.75	0.626140475
408.3846160742396	2.0	CLOSE	1.3962632904585917	StimuliTable-8566-Mapping-Run5.xlsx	53	mellény	szabadidős	8	1	2	909	7	2	5	608	10	4	1	2.05	4.15	4.65	4.85	0.7459257840000001
416.392001788925	2.0	BASELINE	1.5975802396660583	StimuliTable-8566-Mapping-Run5.xlsx	48	legénység	katonai	6	2	2	1179	9	3	4	14642	7	4	3	4.35	6.0	5.9	6.15	1.0
428.4185756590068	2.0	CLOSE	1.7869031509289923	StimuliTable-8566-Mapping-Run5.xlsx	16	csengőhang	változatos	10	2	2	2279	10	3	1	2172	10	4	6	2.55	4.0	4.4	5.35	0.843068182
436.4249777729292	2.0	CLOSE	1.372297499272463	StimuliTable-8566-Mapping-Run5.xlsx	67	osztályzat	átlagos	6	4	2	1028	10	3	3	10804	7	3	7	3.35	5.85	5.35	6.5	0.816440403
444.448347000005	2.0	DISTANT	1.6209256451602414	StimuliTable-8566-Mapping-Run5.xlsx	30	háziorvos	részmunkaidős	6	2	2	2011	9	4	4	365	13	5	1	2.05	5.7	4.75	5.75	0.6547772288
452.4467471118896	2.0	CLOSE	1.7345955697492172	StimuliTable-8566-Mapping-Run5.xlsx	33	iránytű	előnyös	6	1	2	794	7	3	2	2414	7	3	1	1.35	2.9	3.25	2.35	0.8048268559999999
462.46321422798974	2.0	BASELINE	1.3899708070366614	StimuliTable-8566-Mapping-Run5.xlsx	52	matrica	fizetős	8	1	2	1479	7	3	2	2152	7	3	2	2.75	5.8	5.4	5.6	1.0
474.4728332799277	2.0	CLOSE	1.107961966412404	StimuliTable-8566-Mapping-Run5.xlsx	42	kirándulás	tegnapi	10	4	2	1896	10	4	4	6241	7	3	8	2.15	6.7	5.15	6.1	0.839792311
482.4791769925541	2.0	CLOSE	1.573285300830321	StimuliTable-8566-Mapping-Run5.xlsx	70	pisztoly	jogszerűtlen	6	1	2	1679	8	2	3	607	12	4	1	4.2	3.35	2.85	3.45	0.8161163929999999
492.4806746784034	2.0	DISTANT	1.268328593352635	StimuliTable-8566-Mapping-Run5.xlsx	54	menetrend	naprakész	8	3	2	4833	9	3	2	816	9	3	1	2.3	5.35	4.4	6.1	0.7033958440000001
502.4961448741469	2.0	BASELINE	1.364628999368506	StimuliTable-8566-Mapping-Run5.xlsx	90	tűzijáték	nagyszabású	8	4	2	1585	9	4	1	3070	11	4	1	2.9	6.2	6.9	6.6	1.0
512.5016230693309	2.0	DISTANT	1.663094197958344	StimuliTable-8566-Mapping-Run5.xlsx	6	áruházlánc	kockázatos	8	4	2	935	10	4	2	2073	10	4	4	3.05	2.95	2.7	3.7	0.71600765
524.514206499296	2.0	BASELINE	1.1463769552592566	StimuliTable-8566-Mapping-Run5.xlsx	2	albérlet	szegényes	10	3	2	547	8	3	1	439	9	3	7	4.5	5.55	6.5	6.05	1.0
534.5196826453121	2.0	DISTANT	1.7488477911119844	StimuliTable-8566-Mapping-Run5.xlsx	51	magazin	állatorvosi	8	2	2	7307	7	3	2	356	11	5	6	1.6	5.7	5.95	6.65	0.735963702
544.5301907801258	2.0	CLOSE	1.601809979090831	StimuliTable-8566-Mapping-Run5.xlsx	58	műanyag	értelmetlen	8	2	2	3590	7	3	1	1912	11	4	2	3.0	3.65	3.75	2.75	0.908448935
556.5317430250798	2.0	CLOSE	1.3522420334102208	StimuliTable-8566-Mapping-Run5.xlsx	69	pénztárca	titokzatos	10	1	2	1902	9	3	3	1438	10	4	2	2.65	3.3	3.3	3.25	0.799133718
568.5503205283367	2.0	BASELINE	1.6458578753245092	StimuliTable-8566-Mapping-Run5.xlsx	43	kolbász	tonnányi	10	3	2	867	7	2	2	533	8	3	1	2.6	6.05	5.95	6.15	1.0
576.5567059927671	2.0	CLOSE	0.9431699044798734	StimuliTable-8566-Mapping-Run5.xlsx	41	királynő	gyönyörű	6	4	2	2060	8	3	2	4450	8	3	6	2.95	5.7	6.7	6.6	0.846518397
586.5812050799905	2.0	DISTANT	1.4941505211409094	StimuliTable-8566-Mapping-Run5.xlsx	95	végállomás	belvárosi	8	3	2	893	10	4	4	2263	9	4	7	2.1	5.7	5.7	6.1	0.709046066
594.5955856305154	2.0	DISTANT	1.6084531264295947	StimuliTable-8566-Mapping-Run5.xlsx	93	útmutatás	lelkiismereti	6	2	2	703	9	4	2	476	13	6	6	3.5	3.7	2.5	5.05	0.6710424423
606.6151687630936	2.0	CLOSE	1.3328212974156486	StimuliTable-8566-Mapping-Run5.xlsx	63	napsütés	zavartalan	10	4	2	3340	8	3	2	1197	10	4	1	2.75	5.95	6.1	5.75	0.824103177
616.6226349076333	2.0	BASELINE	1.4125680099732565	StimuliTable-8566-Mapping-Run5.xlsx	27	folyadék	elegendő	8	3	2	1438	8	3	3	9296	8	4	1	2.65	4.85	5.45	6.5	1.0
626.6481173394732	2.0	DISTANT	1.6275065490135605	StimuliTable-8566-Mapping-Run5.xlsx	32	horgász	járatos	8	4	2	707	7	2	2	317	7	3	6	1.45	4.9	3.05	5.0	0.6454380751
638.6546959380103	2.0	CLOSE	1.5802878210488416	StimuliTable-8566-Mapping-Run5.xlsx	19	diáklány	védtelen	10	3	2	819	8	3	4	650	8	3	5	4.7	5.4	6.25	6.05	0.762401283
646.6640816409126	2.0	DISTANT	1.530923357777283	StimuliTable-8566-Mapping-Run5.xlsx	71	professzor	alkotmányügyi	6	3	2	6091	10	3	5	1277	13	5	2	2.45	5.65	3.5	3.95	0.640873194
